"i","rt","response","trial_type","trial_index","time_elapsed","internal_node_id","group1","group2","pair"
1,2010,22,"html-slider-response",2,76313,"0.0-2.0-0.0","C2","I1","C2 I1"
1,1669,66,"html-slider-response",3,78084,"0.0-2.0-0.1","I1","X1","I1 X1"
1,2330,10,"html-slider-response",4,80517,"0.0-2.0-0.2","W1","Y1","W1 Y1"
1,2459,89,"html-slider-response",5,83078,"0.0-2.0-0.3","S1","W1","S1 W1"
1,2810,39,"html-slider-response",6,85990,"0.0-2.0-0.4","F1","Y1","F1 Y1"
1,1957,40,"html-slider-response",7,88050,"0.0-2.0-0.5","M1","O1","M1 O1"
1,2073,89,"html-slider-response",8,90225,"0.0-2.0-0.6","A2","V1","A2 V1"
1,2195,74,"html-slider-response",9,92523,"0.0-2.0-0.7","O1","T1","O1 T1"
1,1657,38,"html-slider-response",10,94284,"0.0-2.0-0.8","O1","Y1","O1 Y1"
1,2259,96,"html-slider-response",11,96645,"0.0-2.0-0.9","B1","P1","B1 P1"
1,2061,59,"html-slider-response",12,98809,"0.0-2.0-0.10","E1","U1","E1 U1"
1,2042,37,"html-slider-response",13,100953,"0.0-2.0-0.11","A1","V1","A1 V1"
1,1604,28,"html-slider-response",14,102660,"0.0-2.0-0.12","H1","P1","H1 P1"
1,2142,36,"html-slider-response",15,104904,"0.0-2.0-0.13","I1","R1","I1 R1"
1,2254,42,"html-slider-response",16,107262,"0.0-2.0-0.14","E1","W1","E1 W1"
1,1517,27,"html-slider-response",17,108882,"0.0-2.0-0.15","E1","T1","E1 T1"
1,1754,14,"html-slider-response",18,110737,"0.0-2.0-0.16","B1","U1","B1 U1"
1,1360,36,"html-slider-response",19,112199,"0.0-2.0-0.17","A2","S1","A2 S1"
1,1363,54,"html-slider-response",20,113664,"0.0-2.0-0.18","R1","U1","R1 U1"
1,1443,36,"html-slider-response",21,115209,"0.0-2.0-0.19","A1","C2","A1 C2"
1,1741,35,"html-slider-response",22,117051,"0.0-2.0-0.20","P1","T1","P1 T1"
1,1490,61,"html-slider-response",23,118644,"0.0-2.0-0.21","A2","W1","A2 W1"
1,2094,9,"html-slider-response",24,120840,"0.0-2.0-0.22","G1","N1","G1 N1"
1,1620,75,"html-slider-response",25,122565,"0.0-2.0-0.23","O1","X1","O1 X1"
1,1375,23,"html-slider-response",26,124042,"0.0-2.0-0.24","A2","G1","A2 G1"
1,1184,26,"html-slider-response",27,125329,"0.0-2.0-0.25","G1","X1","G1 X1"
1,4607,56,"html-slider-response",28,130039,"0.0-2.0-0.26","A1","P1","A1 P1"
2,6276,23,"html-slider-response",2,31737,"0.0-2.0-0.0","B1","E1","B1 E1"
2,4931,88,"html-slider-response",3,36782,"0.0-2.0-0.1","F1","W1","F1 W1"
2,3153,0,"html-slider-response",4,40039,"0.0-2.0-0.2","C2","F1","C2 F1"
2,5420,18,"html-slider-response",5,45564,"0.0-2.0-0.3","E1","G1","E1 G1"
2,3254,80,"html-slider-response",6,48924,"0.0-2.0-0.4","T1","X1","T1 X1"
2,3743,58,"html-slider-response",7,52770,"0.0-2.0-0.5","M1","X1","M1 X1"
2,3415,31,"html-slider-response",8,56290,"0.0-2.0-0.6","P1","W1","P1 W1"
2,5181,53,"html-slider-response",9,61574,"0.0-2.0-0.7","Q1","X1","Q1 X1"
2,3519,32,"html-slider-response",10,65196,"0.0-2.0-0.8","B1","O1","B1 O1"
2,3012,17,"html-slider-response",11,68312,"0.0-2.0-0.9","M1","Z1","M1 Z1"
2,3261,29,"html-slider-response",12,71678,"0.0-2.0-0.10","B1","W1","B1 W1"
2,4196,78,"html-slider-response",13,75976,"0.0-2.0-0.11","I1","T1","I1 T1"
2,2871,5,"html-slider-response",14,78951,"0.0-2.0-0.12","A1","B2","A1 B2"
2,4605,74,"html-slider-response",15,83659,"0.0-2.0-0.13","F1","U1","F1 U1"
2,2744,39,"html-slider-response",16,86512,"0.0-2.0-0.14","J1","Z1","J1 Z1"
2,2862,30,"html-slider-response",17,89478,"0.0-2.0-0.15","J1","S1","J1 S1"
2,4087,54,"html-slider-response",18,93666,"0.0-2.0-0.16","L1","Q1","L1 Q1"
2,2765,29,"html-slider-response",19,96535,"0.0-2.0-0.17","W1","Z1","W1 Z1"
2,2917,27,"html-slider-response",20,99556,"0.0-2.0-0.18","I1","L1","I1 L1"
2,4886,29,"html-slider-response",21,104544,"0.0-2.0-0.19","S1","U1","S1 U1"
2,3258,25,"html-slider-response",22,107908,"0.0-2.0-0.20","V1","W1","V1 W1"
2,4242,69,"html-slider-response",23,112253,"0.0-2.0-0.21","B2","N1","B2 N1"
2,3400,38,"html-slider-response",24,115757,"0.0-2.0-0.22","E1","Q1","E1 Q1"
2,3077,38,"html-slider-response",25,118940,"0.0-2.0-0.23","M1","Q1","M1 Q1"
2,3292,44,"html-slider-response",26,122337,"0.0-2.0-0.24","P1","S1","P1 S1"
2,4171,82,"html-slider-response",27,126610,"0.0-2.0-0.25","B2","X1","B2 X1"
2,4169,95,"html-slider-response",28,130884,"0.0-2.0-0.26","H1","Y1","H1 Y1"
3,8221,8,"html-slider-response",2,108677,"0.0-2.0-0.0","C2","W1","C2 W1"
3,6555,23,"html-slider-response",3,115335,"0.0-2.0-0.1","A1","H1","A1 H1"
3,9401,46,"html-slider-response",4,124842,"0.0-2.0-0.2","C2","U1","C2 U1"
3,7141,57,"html-slider-response",5,132084,"0.0-2.0-0.3","P1","Y1","P1 Y1"
3,6571,39,"html-slider-response",6,138758,"0.0-2.0-0.4","L1","Y1","L1 Y1"
3,4136,78,"html-slider-response",7,142997,"0.0-2.0-0.5","A2","N1","A2 N1"
3,4842,65,"html-slider-response",8,147940,"0.0-2.0-0.6","L1","T1","L1 T1"
3,6891,54,"html-slider-response",9,154934,"0.0-2.0-0.7","B2","H1","B2 H1"
3,10030,42,"html-slider-response",10,165068,"0.0-2.0-0.8","G1","Q1","G1 Q1"
3,4890,61,"html-slider-response",11,170060,"0.0-2.0-0.9","K1","L1","K1 L1"
3,8258,47,"html-slider-response",12,178420,"0.0-2.0-0.10","E1","Z1","E1 Z1"
3,4227,69,"html-slider-response",13,182750,"0.0-2.0-0.11","E1","X1","E1 X1"
3,6953,58,"html-slider-response",14,189806,"0.0-2.0-0.12","A1","Q1","A1 Q1"
3,13391,78,"html-slider-response",15,203301,"0.0-2.0-0.13","K1","T1","K1 T1"
3,5249,33,"html-slider-response",16,208652,"0.0-2.0-0.14","C2","T1","C2 T1"
3,4323,47,"html-slider-response",17,213078,"0.0-2.0-0.15","G1","J1","G1 J1"
3,4023,54,"html-slider-response",18,217205,"0.0-2.0-0.16","N1","Q1","N1 Q1"
3,3602,70,"html-slider-response",19,220909,"0.0-2.0-0.17","A2","Z1","A2 Z1"
3,6439,45,"html-slider-response",20,227452,"0.0-2.0-0.18","E1","P1","E1 P1"
3,3314,63,"html-slider-response",21,230868,"0.0-2.0-0.19","S1","Z1","S1 Z1"
3,3970,55,"html-slider-response",22,234941,"0.0-2.0-0.20","L1","P1","L1 P1"
3,5383,39,"html-slider-response",23,240428,"0.0-2.0-0.21","F1","M1","F1 M1"
3,7706,47,"html-slider-response",24,248236,"0.0-2.0-0.22","G1","L1","G1 L1"
3,6754,56,"html-slider-response",25,255093,"0.0-2.0-0.23","A2","I1","A2 I1"
3,4457,73,"html-slider-response",26,259654,"0.0-2.0-0.24","J1","R1","J1 R1"
3,5189,43,"html-slider-response",27,264948,"0.0-2.0-0.25","B2","Q1","B2 Q1"
3,5555,66,"html-slider-response",28,270604,"0.0-2.0-0.26","B1","H1","B1 H1"
4,16591,57,"html-slider-response",2,48441,"0.0-2.0-0.0","E1","S1","E1 S1"
4,7715,62,"html-slider-response",3,56261,"0.0-2.0-0.1","B1","Z1","B1 Z1"
4,8453,74,"html-slider-response",4,64817,"0.0-2.0-0.2","A1","S1","A1 S1"
4,10792,39,"html-slider-response",5,75712,"0.0-2.0-0.3","A2","Y1","A2 Y1"
4,6474,45,"html-slider-response",6,82290,"0.0-2.0-0.4","G1","P1","G1 P1"
4,6397,52,"html-slider-response",7,88803,"0.0-2.0-0.5","A2","J1","A2 J1"
4,8012,47,"html-slider-response",8,96918,"0.0-2.0-0.6","E1","K1","E1 K1"
4,8239,47,"html-slider-response",9,105272,"0.0-2.0-0.7","A1","I1","A1 I1"
4,5679,56,"html-slider-response",10,111063,"0.0-2.0-0.8","C2","H1","C2 H1"
4,6098,56,"html-slider-response",11,117272,"0.0-2.0-0.9","C2","M1","C2 M1"
4,6280,88,"html-slider-response",12,123657,"0.0-2.0-0.10","N1","R1","N1 R1"
4,5857,66,"html-slider-response",13,129618,"0.0-2.0-0.11","A2","U1","A2 U1"
4,6986,59,"html-slider-response",14,136709,"0.0-2.0-0.12","P1","Q1","P1 Q1"
4,7048,67,"html-slider-response",15,143861,"0.0-2.0-0.13","R1","V1","R1 V1"
4,11161,54,"html-slider-response",16,155127,"0.0-2.0-0.14","G1","I1","G1 I1"
4,7474,58,"html-slider-response",17,162705,"0.0-2.0-0.15","A1","N1","A1 N1"
4,7786,54,"html-slider-response",18,170595,"0.0-2.0-0.16","A1","B1","A1 B1"
4,10804,28,"html-slider-response",19,181505,"0.0-2.0-0.17","G1","R1","G1 R1"
4,6075,52,"html-slider-response",20,187699,"0.0-2.0-0.18","K1","N1","K1 N1"
4,6134,7,"html-slider-response",21,193939,"0.0-2.0-0.19","F1","G1","F1 G1"
4,6842,60,"html-slider-response",22,200885,"0.0-2.0-0.20","A2","P1","A2 P1"
4,6556,43,"html-slider-response",23,207545,"0.0-2.0-0.21","Q1","S1","Q1 S1"
4,8903,79,"html-slider-response",24,216573,"0.0-2.0-0.22","B2","L1","B2 L1"
4,9500,29,"html-slider-response",25,226189,"0.0-2.0-0.23","B1","F1","B1 F1"
4,6046,85,"html-slider-response",26,232341,"0.0-2.0-0.24","B2","I1","B2 I1"
4,5454,21,"html-slider-response",27,237901,"0.0-2.0-0.25","M1","V1","M1 V1"
4,5925,71,"html-slider-response",28,243944,"0.0-2.0-0.26","M1","S1","M1 S1"
5,7900,42,"html-slider-response",2,23455,"0.0-2.0-0.0","V1","Z1","V1 Z1"
5,3391,41,"html-slider-response",3,26950,"0.0-2.0-0.1","F1","V1","F1 V1"
5,2191,30,"html-slider-response",4,29243,"0.0-2.0-0.2","B2","Y1","B2 Y1"
5,22582,31,"html-slider-response",5,51928,"0.0-2.0-0.3","B1","V1","B1 V1"
5,4971,40,"html-slider-response",6,57001,"0.0-2.0-0.4","W1","X1","W1 X1"
5,2459,32,"html-slider-response",7,59562,"0.0-2.0-0.5","N1","W1","N1 W1"
5,2693,45,"html-slider-response",8,62358,"0.0-2.0-0.6","B1","T1","B1 T1"
5,2378,36,"html-slider-response",9,64838,"0.0-2.0-0.7","O1","P1","O1 P1"
5,4131,40,"html-slider-response",10,69072,"0.0-2.0-0.8","B1","Q1","B1 Q1"
5,2644,43,"html-slider-response",11,71819,"0.0-2.0-0.9","S1","T1","S1 T1"
5,1988,43,"html-slider-response",12,73909,"0.0-2.0-0.10","G1","Z1","G1 Z1"
5,5069,48,"html-slider-response",13,79082,"0.0-2.0-0.11","B1","C2","B1 C2"
5,2223,43,"html-slider-response",14,81407,"0.0-2.0-0.12","R1","W1","R1 W1"
5,2033,41,"html-slider-response",15,83542,"0.0-2.0-0.13","S1","V1","S1 V1"
5,3789,37,"html-slider-response",16,87435,"0.0-2.0-0.14","N1","T1","N1 T1"
5,3834,49,"html-slider-response",17,91370,"0.0-2.0-0.15","U1","Y1","U1 Y1"
5,2233,39,"html-slider-response",18,93706,"0.0-2.0-0.16","C2","S1","C2 S1"
5,2269,38,"html-slider-response",19,96077,"0.0-2.0-0.17","B1","G1","B1 G1"
5,2836,52,"html-slider-response",20,99015,"0.0-2.0-0.18","R1","X1","R1 X1"
5,1886,44,"html-slider-response",21,101003,"0.0-2.0-0.19","V1","X1","V1 X1"
5,1997,45,"html-slider-response",22,103103,"0.0-2.0-0.20","J1","N1","J1 N1"
5,2873,37,"html-slider-response",23,106079,"0.0-2.0-0.21","J1","Q1","J1 Q1"
5,2414,43,"html-slider-response",24,108594,"0.0-2.0-0.22","I1","O1","I1 O1"
5,1837,39,"html-slider-response",25,110534,"0.0-2.0-0.23","M1","N1","M1 N1"
5,2087,41,"html-slider-response",26,112724,"0.0-2.0-0.24","A1","E1","A1 E1"
5,3110,58,"html-slider-response",27,115937,"0.0-2.0-0.25","B2","K1","B2 K1"
5,2323,48,"html-slider-response",28,118364,"0.0-2.0-0.26","B2","O1","B2 O1"
6,5705,84,"html-slider-response",2,35331,"0.0-2.0-0.0","A2","T1","A2 T1"
6,3708,44,"html-slider-response",3,39142,"0.0-2.0-0.1","J1","U1","J1 U1"
6,2895,19,"html-slider-response",4,42140,"0.0-2.0-0.2","H1","V1","H1 V1"
6,4961,39,"html-slider-response",5,47206,"0.0-2.0-0.3","I1","S1","I1 S1"
6,2434,60,"html-slider-response",6,49744,"0.0-2.0-0.4","F1","N1","F1 N1"
6,2720,63,"html-slider-response",7,52568,"0.0-2.0-0.5","B2","M1","B2 M1"
6,3827,56,"html-slider-response",8,56498,"0.0-2.0-0.6","O1","Z1","O1 Z1"
6,4334,29,"html-slider-response",9,60936,"0.0-2.0-0.7","O1","V1","O1 V1"
6,3288,58,"html-slider-response",10,64327,"0.0-2.0-0.8","K1","R1","K1 R1"
6,3379,60,"html-slider-response",11,67808,"0.0-2.0-0.9","I1","U1","I1 U1"
6,3818,64,"html-slider-response",12,71729,"0.0-2.0-0.10","B2","F1","B2 F1"
6,2770,66,"html-slider-response",13,74600,"0.0-2.0-0.11","J1","T1","J1 T1"
6,2678,61,"html-slider-response",14,77380,"0.0-2.0-0.12","K1","Z1","K1 Z1"
6,3008,63,"html-slider-response",15,80490,"0.0-2.0-0.13","M1","Y1","M1 Y1"
6,3342,67,"html-slider-response",16,83935,"0.0-2.0-0.14","T1","U1","T1 U1"
6,3177,10,"html-slider-response",17,87215,"0.0-2.0-0.15","Q1","R1","Q1 R1"
6,2537,59,"html-slider-response",18,89854,"0.0-2.0-0.16","O1","W1","O1 W1"
6,3000,57,"html-slider-response",19,92957,"0.0-2.0-0.17","I1","M1","I1 M1"
6,2806,19,"html-slider-response",20,95865,"0.0-2.0-0.18","B1","K1","B1 K1"
6,3084,34,"html-slider-response",21,99051,"0.0-2.0-0.19","B1","X1","B1 X1"
6,3218,61,"html-slider-response",22,102372,"0.0-2.0-0.20","I1","W1","I1 W1"
6,2761,24,"html-slider-response",23,105235,"0.0-2.0-0.21","K1","U1","K1 U1"
6,3019,24,"html-slider-response",24,108358,"0.0-2.0-0.22","F1","Q1","F1 Q1"
6,3945,60,"html-slider-response",25,112404,"0.0-2.0-0.23","L1","R1","L1 R1"
6,3342,58,"html-slider-response",26,115849,"0.0-2.0-0.24","J1","M1","J1 M1"
6,5701,51,"html-slider-response",27,121652,"0.0-2.0-0.25","A2","X1","A2 X1"
6,2525,57,"html-slider-response",28,124279,"0.0-2.0-0.26","L1","O1","L1 O1"
7,4444,22,"html-slider-response",2,32219,"0.0-2.0-0.0","T1","Z1","T1 Z1"
7,2153,18,"html-slider-response",3,34475,"0.0-2.0-0.1","F1","H1","F1 H1"
7,2497,71,"html-slider-response",4,37074,"0.0-2.0-0.2","F1","L1","F1 L1"
7,4154,30,"html-slider-response",5,41331,"0.0-2.0-0.3","C2","G1","C2 G1"
7,2186,61,"html-slider-response",6,43618,"0.0-2.0-0.4","B2","J1","B2 J1"
7,2145,7,"html-slider-response",7,45866,"0.0-2.0-0.5","Q1","V1","Q1 V1"
7,1865,0,"html-slider-response",8,47834,"0.0-2.0-0.6","G1","O1","G1 O1"
7,1833,0,"html-slider-response",9,49770,"0.0-2.0-0.7","S1","Y1","S1 Y1"
7,1787,7,"html-slider-response",10,51658,"0.0-2.0-0.8","H1","R1","H1 R1"
7,2554,33,"html-slider-response",11,54314,"0.0-2.0-0.9","J1","Y1","J1 Y1"
7,2113,63,"html-slider-response",12,56530,"0.0-2.0-0.10","E1","F1","E1 F1"
7,3514,20,"html-slider-response",13,60146,"0.0-2.0-0.11","B2","C2","B2 C2"
7,2280,39,"html-slider-response",14,62530,"0.0-2.0-0.12","E1","V1","E1 V1"
7,2298,85,"html-slider-response",15,64930,"0.0-2.0-0.13","A2","B1","A2 B1"
7,1865,27,"html-slider-response",16,66899,"0.0-2.0-0.14","C2","O1","C2 O1"
7,3417,2,"html-slider-response",17,70418,"0.0-2.0-0.15","A1","Y1","A1 Y1"
7,2280,79,"html-slider-response",18,72802,"0.0-2.0-0.16","F1","T1","F1 T1"
7,1904,19,"html-slider-response",19,74810,"0.0-2.0-0.17","B1","I1","B1 I1"
7,2416,23,"html-slider-response",20,77330,"0.0-2.0-0.18","G1","V1","G1 V1"
7,1680,62,"html-slider-response",21,79114,"0.0-2.0-0.19","H1","L1","H1 L1"
7,1857,85,"html-slider-response",22,81074,"0.0-2.0-0.20","J1","W1","J1 W1"
7,2041,81,"html-slider-response",23,83218,"0.0-2.0-0.21","I1","K1","I1 K1"
7,1508,17,"html-slider-response",24,84830,"0.0-2.0-0.22","C2","Q1","C2 Q1"
7,2023,68,"html-slider-response",25,86954,"0.0-2.0-0.23","H1","K1","H1 K1"
7,1794,87,"html-slider-response",26,88850,"0.0-2.0-0.24","H1","T1","H1 T1"
7,3674,81,"html-slider-response",27,92626,"0.0-2.0-0.25","N1","Z1","N1 Z1"
7,2170,17,"html-slider-response",28,94899,"0.0-2.0-0.26","Q1","Y1","Q1 Y1"
8,150830,37,"html-slider-response",2,166814,"0.0-2.0-0.0","F1","I1","F1 I1"
8,2104,44,"html-slider-response",3,169022,"0.0-2.0-0.1","A1","M1","A1 M1"
8,929,57,"html-slider-response",4,170053,"0.0-2.0-0.2","A1","O1","A1 O1"
8,1026,60,"html-slider-response",5,171182,"0.0-2.0-0.3","G1","H1","G1 H1"
8,1019,66,"html-slider-response",6,172302,"0.0-2.0-0.4","U1","W1","U1 W1"
8,794,46,"html-slider-response",7,173198,"0.0-2.0-0.5","O1","Q1","O1 Q1"
8,1011,57,"html-slider-response",8,174310,"0.0-2.0-0.6","B1","M1","B1 M1"
8,859,41,"html-slider-response",9,175270,"0.0-2.0-0.7","M1","P1","M1 P1"
8,1137,52,"html-slider-response",10,176510,"0.0-2.0-0.8","M1","T1","M1 T1"
8,1250,34,"html-slider-response",11,177862,"0.0-2.0-0.9","C2","X1","C2 X1"
8,947,45,"html-slider-response",12,178910,"0.0-2.0-0.10","H1","W1","H1 W1"
8,1314,61,"html-slider-response",13,180326,"0.0-2.0-0.11","G1","S1","G1 S1"
8,1169,40,"html-slider-response",14,181597,"0.0-2.0-0.12","B1","N1","B1 N1"
8,994,44,"html-slider-response",15,182693,"0.0-2.0-0.13","Y1","Z1","Y1 Z1"
8,998,61,"html-slider-response",16,183798,"0.0-2.0-0.14","H1","X1","H1 X1"
8,1011,32,"html-slider-response",17,184910,"0.0-2.0-0.15","G1","W1","G1 W1"
8,2274,40,"html-slider-response",18,187286,"0.0-2.0-0.16","K1","O1","K1 O1"
8,985,36,"html-slider-response",19,188374,"0.0-2.0-0.17","H1","S1","H1 S1"
8,1505,59,"html-slider-response",20,189982,"0.0-2.0-0.18","J1","P1","J1 P1"
8,1178,66,"html-slider-response",21,191262,"0.0-2.0-0.19","B1","R1","B1 R1"
8,994,46,"html-slider-response",22,192358,"0.0-2.0-0.20","Q1","W1","Q1 W1"
8,1147,59,"html-slider-response",23,193606,"0.0-2.0-0.21","B1","L1","B1 L1"
8,986,73,"html-slider-response",24,194694,"0.0-2.0-0.22","G1","T1","G1 T1"
8,1282,58,"html-slider-response",25,196078,"0.0-2.0-0.23","I1","V1","I1 V1"
8,1195,43,"html-slider-response",26,197374,"0.0-2.0-0.24","C2","K1","C2 K1"
8,1058,34,"html-slider-response",27,198534,"0.0-2.0-0.25","K1","M1","K1 M1"
8,1794,39,"html-slider-response",28,200430,"0.0-2.0-0.26","K1","Y1","K1 Y1"
9,6559,27,"html-slider-response",2,44581,"0.0-2.0-0.0","L1","V1","L1 V1"
9,4191,28,"html-slider-response",3,48883,"0.0-2.0-0.1","C2","V1","C2 V1"
9,3005,20,"html-slider-response",4,51991,"0.0-2.0-0.2","R1","Y1","R1 Y1"
9,5315,65,"html-slider-response",5,57409,"0.0-2.0-0.3","I1","J1","I1 J1"
9,3283,22,"html-slider-response",6,60798,"0.0-2.0-0.4","B1","J1","B1 J1"
9,5185,14,"html-slider-response",7,66086,"0.0-2.0-0.5","X1","Y1","X1 Y1"
9,4047,7,"html-slider-response",8,70237,"0.0-2.0-0.6","I1","Q1","I1 Q1"
9,3155,6,"html-slider-response",9,73499,"0.0-2.0-0.7","M1","R1","M1 R1"
9,3147,19,"html-slider-response",10,76751,"0.0-2.0-0.8","A2","B2","A2 B2"
9,3547,52,"html-slider-response",11,80407,"0.0-2.0-0.9","E1","N1","E1 N1"
9,2983,18,"html-slider-response",12,83493,"0.0-2.0-0.10","N1","P1","N1 P1"
9,4708,46,"html-slider-response",13,88303,"0.0-2.0-0.11","A1","G1","A1 G1"
9,5098,28,"html-slider-response",14,93507,"0.0-2.0-0.12","Q1","U1","Q1 U1"
9,4537,77,"html-slider-response",15,98148,"0.0-2.0-0.13","J1","L1","J1 L1"
9,3599,26,"html-slider-response",16,101851,"0.0-2.0-0.14","P1","X1","P1 X1"
9,4810,40,"html-slider-response",17,106773,"0.0-2.0-0.15","H1","O1","H1 O1"
9,2744,52,"html-slider-response",18,109625,"0.0-2.0-0.16","E1","Y1","E1 Y1"
9,2974,83,"html-slider-response",19,112701,"0.0-2.0-0.17","B2","R1","B2 R1"
9,2945,94,"html-slider-response",20,115749,"0.0-2.0-0.18","A1","A2","A1 A2"
9,5182,42,"html-slider-response",21,121037,"0.0-2.0-0.19","A1","U1","A1 U1"
9,3703,41,"html-slider-response",22,124843,"0.0-2.0-0.20","E1","I1","E1 I1"
9,2795,35,"html-slider-response",23,127740,"0.0-2.0-0.21","B2","P1","B2 P1"
9,4015,39,"html-slider-response",24,131861,"0.0-2.0-0.22","R1","S1","R1 S1"
9,3494,59,"html-slider-response",25,135460,"0.0-2.0-0.23","P1","U1","P1 U1"
9,2752,67,"html-slider-response",26,138314,"0.0-2.0-0.24","A2","M1","A2 M1"
9,2692,32,"html-slider-response",27,141110,"0.0-2.0-0.25","H1","N1","H1 N1"
9,2325,64,"html-slider-response",28,143539,"0.0-2.0-0.26","N1","V1","N1 V1"
10,5466,14,"html-slider-response",2,23092,"0.0-2.0-0.0","A1","W1","A1 W1"
10,2665,17,"html-slider-response",3,25859,"0.0-2.0-0.1","L1","M1","L1 M1"
10,5429,66,"html-slider-response",4,31393,"0.0-2.0-0.2","B2","U1","B2 U1"
10,2764,36,"html-slider-response",5,34261,"0.0-2.0-0.3","A2","O1","A2 O1"
10,4562,70,"html-slider-response",6,38926,"0.0-2.0-0.4","A1","T1","A1 T1"
10,2347,32,"html-slider-response",7,41375,"0.0-2.0-0.5","M1","U1","M1 U1"
10,3498,75,"html-slider-response",8,44975,"0.0-2.0-0.6","H1","M1","H1 M1"
10,3364,28,"html-slider-response",9,48443,"0.0-2.0-0.7","A2","E1","A2 E1"
10,2230,67,"html-slider-response",10,50775,"0.0-2.0-0.8","S1","X1","S1 X1"
10,1752,30,"html-slider-response",11,52628,"0.0-2.0-0.9","A1","F1","A1 F1"
10,1697,75,"html-slider-response",12,54427,"0.0-2.0-0.10","O1","S1","O1 S1"
10,3716,62,"html-slider-response",13,58245,"0.0-2.0-0.11","K1","Q1","K1 Q1"
10,2546,71,"html-slider-response",14,60892,"0.0-2.0-0.12","J1","K1","J1 K1"
10,3231,13,"html-slider-response",15,64225,"0.0-2.0-0.13","C2","N1","C2 N1"
10,2565,78,"html-slider-response",16,66892,"0.0-2.0-0.14","N1","X1","N1 X1"
10,3431,74,"html-slider-response",17,70425,"0.0-2.0-0.15","A2","R1","A2 R1"
10,1996,26,"html-slider-response",18,72525,"0.0-2.0-0.16","V1","Y1","V1 Y1"
10,2698,76,"html-slider-response",19,75324,"0.0-2.0-0.17","A1","L1","A1 L1"
10,3765,27,"html-slider-response",20,79190,"0.0-2.0-0.18","C2","J1","C2 J1"
10,2599,69,"html-slider-response",21,81891,"0.0-2.0-0.19","L1","N1","L1 N1"
10,2281,86,"html-slider-response",22,84275,"0.0-2.0-0.20","B1","B2","B1 B2"
10,2234,75,"html-slider-response",23,86610,"0.0-2.0-0.21","C2","Y1","C2 Y1"
10,2533,70,"html-slider-response",24,89244,"0.0-2.0-0.22","F1","K1","F1 K1"
10,13712,23,"html-slider-response",25,103058,"0.0-2.0-0.23","K1","S1","K1 S1"
10,2015,65,"html-slider-response",26,105175,"0.0-2.0-0.24","K1","W1","K1 W1"
10,1798,66,"html-slider-response",27,107075,"0.0-2.0-0.25","P1","V1","P1 V1"
10,2168,67,"html-slider-response",28,109344,"0.0-2.0-0.26","J1","X1","J1 X1"
11,2880,55,"html-slider-response",2,1018445,"0.0-2.0-0.0","H1","Z1","H1 Z1"
11,2672,46,"html-slider-response",3,1021222,"0.0-2.0-0.1","B2","Z1","B2 Z1"
11,2004,69,"html-slider-response",4,1023332,"0.0-2.0-0.2","U1","V1","U1 V1"
11,1595,29,"html-slider-response",5,1025033,"0.0-2.0-0.3","B1","Y1","B1 Y1"
11,2426,29,"html-slider-response",6,1027562,"0.0-2.0-0.4","F1","X1","F1 X1"
11,1641,44,"html-slider-response",7,1029308,"0.0-2.0-0.5","H1","U1","H1 U1"
11,1644,56,"html-slider-response",8,1031056,"0.0-2.0-0.6","T1","W1","T1 W1"
11,1955,60,"html-slider-response",9,1033116,"0.0-2.0-0.7","J1","O1","J1 O1"
11,3657,3,"html-slider-response",10,1036876,"0.0-2.0-0.8","A2","C2","A2 C2"
11,1994,64,"html-slider-response",11,1038976,"0.0-2.0-0.9","E1","O1","E1 O1"
11,2350,38,"html-slider-response",12,1041430,"0.0-2.0-0.10","H1","J1","H1 J1"
11,1890,31,"html-slider-response",13,1043424,"0.0-2.0-0.11","C2","Z1","C2 Z1"
11,1709,23,"html-slider-response",14,1045238,"0.0-2.0-0.12","G1","U1","G1 U1"
11,3383,0,"html-slider-response",15,1048726,"0.0-2.0-0.13","A2","H1","A2 H1"
11,2494,62,"html-slider-response",16,1051326,"0.0-2.0-0.14","U1","Z1","U1 Z1"
11,1918,31,"html-slider-response",17,1053348,"0.0-2.0-0.15","N1","O1","N1 O1"
11,2550,24,"html-slider-response",18,1056002,"0.0-2.0-0.16","K1","V1","K1 V1"
11,1779,58,"html-slider-response",19,1057886,"0.0-2.0-0.17","L1","W1","L1 W1"
11,2703,6,"html-slider-response",20,1060694,"0.0-2.0-0.18","P1","R1","P1 R1"
11,20951,39,"html-slider-response",21,1081748,"0.0-2.0-0.19","A2","L1","A2 L1"
11,3574,39,"html-slider-response",22,1085428,"0.0-2.0-0.20","T1","V1","T1 V1"
11,1994,77,"html-slider-response",23,1087525,"0.0-2.0-0.21","O1","U1","O1 U1"
11,1770,53,"html-slider-response",24,1089400,"0.0-2.0-0.22","K1","X1","K1 X1"
11,1958,39,"html-slider-response",25,1091462,"0.0-2.0-0.23","F1","S1","F1 S1"
11,2710,38,"html-slider-response",26,1094275,"0.0-2.0-0.24","E1","R1","E1 R1"
11,2556,33,"html-slider-response",27,1096937,"0.0-2.0-0.25","A1","Z1","A1 Z1"
11,3614,88,"html-slider-response",28,1100656,"0.0-2.0-0.26","X1","Z1","X1 Z1"
12,7132,16,"html-slider-response",2,31681,"0.0-2.0-0.0","I1","Z1","I1 Z1"
12,4567,81,"html-slider-response",3,36351,"0.0-2.0-0.1","F1","O1","F1 O1"
12,3693,45,"html-slider-response",4,40147,"0.0-2.0-0.2","L1","S1","L1 S1"
12,3546,100,"html-slider-response",5,43794,"0.0-2.0-0.3","B1","S1","B1 S1"
12,2948,41,"html-slider-response",6,46844,"0.0-2.0-0.4","N1","S1","N1 S1"
12,3455,58,"html-slider-response",7,50401,"0.0-2.0-0.5","H1","Q1","H1 Q1"
12,2679,94,"html-slider-response",8,53183,"0.0-2.0-0.6","B2","T1","B2 T1"
12,4259,61,"html-slider-response",9,57544,"0.0-2.0-0.7","P1","Z1","P1 Z1"
12,2770,53,"html-slider-response",10,60416,"0.0-2.0-0.8","F1","Z1","F1 Z1"
12,2059,74,"html-slider-response",11,62577,"0.0-2.0-0.9","L1","X1","L1 X1"
12,3938,3,"html-slider-response",12,66617,"0.0-2.0-0.10","A1","J1","A1 J1"
12,2331,3,"html-slider-response",13,69050,"0.0-2.0-0.11","B2","G1","B2 G1"
12,2673,43,"html-slider-response",14,71824,"0.0-2.0-0.12","Q1","T1","Q1 T1"
12,2364,2,"html-slider-response",15,74290,"0.0-2.0-0.13","N1","Y1","N1 Y1"
12,3721,5,"html-slider-response",16,78114,"0.0-2.0-0.14","L1","Z1","L1 Z1"
12,2974,53,"html-slider-response",17,81189,"0.0-2.0-0.15","H1","I1","H1 I1"
12,2055,28,"html-slider-response",18,83346,"0.0-2.0-0.16","R1","Z1","R1 Z1"
12,2517,12,"html-slider-response",19,85966,"0.0-2.0-0.17","E1","L1","E1 L1"
12,2077,0,"html-slider-response",20,88146,"0.0-2.0-0.18","E1","H1","E1 H1"
12,5214,44,"html-slider-response",21,93462,"0.0-2.0-0.19","B2","W1","B2 W1"
12,2763,43,"html-slider-response",22,96328,"0.0-2.0-0.20","F1","P1","F1 P1"
12,3098,66,"html-slider-response",23,99530,"0.0-2.0-0.21","F1","J1","F1 J1"
12,2402,2,"html-slider-response",24,102034,"0.0-2.0-0.22","C2","P1","C2 P1"
12,2256,21,"html-slider-response",25,104392,"0.0-2.0-0.23","A1","X1","A1 X1"
12,3239,0,"html-slider-response",26,107733,"0.0-2.0-0.24","T1","Y1","T1 Y1"
12,6128,26,"html-slider-response",27,113963,"0.0-2.0-0.25","E1","J1","E1 J1"
12,1587,27,"html-slider-response",28,115653,"0.0-2.0-0.26","G1","K1","G1 K1"
13,7206,44,"html-slider-response",2,1208050,"0.0-2.0-0.0","I1","N1","I1 N1"
13,6522,44,"html-slider-response",3,1214675,"0.0-2.0-0.1","I1","P1","I1 P1"
13,7458,45,"html-slider-response",4,1222234,"0.0-2.0-0.2","B2","S1","B2 S1"
13,4818,47,"html-slider-response",5,1227154,"0.0-2.0-0.3","B2","V1","B2 V1"
13,2842,35,"html-slider-response",6,1230098,"0.0-2.0-0.4","C2","E1","C2 E1"
13,4763,56,"html-slider-response",7,1234962,"0.0-2.0-0.5","F1","R1","F1 R1"
13,5283,43,"html-slider-response",8,1240346,"0.0-2.0-0.6","K1","P1","K1 P1"
13,2939,35,"html-slider-response",9,1243386,"0.0-2.0-0.7","A1","R1","A1 R1"
13,3218,37,"html-slider-response",10,1246706,"0.0-2.0-0.8","A2","K1","A2 K1"
13,3787,52,"html-slider-response",11,1250594,"0.0-2.0-0.9","O1","R1","O1 R1"
13,137562,11,"html-slider-response",12,1388259,"0.0-2.0-0.10","C2","L1","C2 L1"
13,4475,61,"html-slider-response",13,1392835,"0.0-2.0-0.11","R1","T1","R1 T1"
13,3035,62,"html-slider-response",14,1395971,"0.0-2.0-0.12","G1","M1","G1 M1"
13,2451,55,"html-slider-response",15,1398523,"0.0-2.0-0.13","U1","X1","U1 X1"
13,3675,35,"html-slider-response",16,1402299,"0.0-2.0-0.14","A2","Q1","A2 Q1"
13,2490,28,"html-slider-response",17,1404891,"0.0-2.0-0.15","C2","R1","C2 R1"
13,2371,63,"html-slider-response",18,1407363,"0.0-2.0-0.16","G1","Y1","G1 Y1"
13,3770,51,"html-slider-response",19,1411235,"0.0-2.0-0.17","J1","V1","J1 V1"
13,2971,57,"html-slider-response",20,1414307,"0.0-2.0-0.18","Q1","Z1","Q1 Z1"
13,1875,59,"html-slider-response",21,1416283,"0.0-2.0-0.19","A2","F1","A2 F1"
13,1963,60,"html-slider-response",22,1418347,"0.0-2.0-0.20","E1","M1","E1 M1"
13,2202,56,"html-slider-response",23,1420651,"0.0-2.0-0.21","B2","E1","B2 E1"
13,2202,60,"html-slider-response",24,1422955,"0.0-2.0-0.22","N1","U1","N1 U1"
13,1883,57,"html-slider-response",25,1424939,"0.0-2.0-0.23","M1","W1","M1 W1"
13,1818,58,"html-slider-response",26,1426859,"0.0-2.0-0.24","L1","U1","L1 U1"
13,1867,57,"html-slider-response",27,1428827,"0.0-2.0-0.25","I1","Y1","I1 Y1"
13,12908,54,"html-slider-response",28,1441836,"0.0-2.0-0.26","A1","K1","A1 K1"
14,5198,84,"html-slider-response",2,18979,"0.0-2.0-0.0","E1","U1","E1 U1"
14,3839,32,"html-slider-response",3,22921,"0.0-2.0-0.1","B1","U1","B1 U1"
14,5108,92,"html-slider-response",4,28136,"0.0-2.0-0.2","S1","W1","S1 W1"
14,3287,43,"html-slider-response",5,31528,"0.0-2.0-0.3","G1","X1","G1 X1"
14,4718,37,"html-slider-response",6,36350,"0.0-2.0-0.4","A1","C2","A1 C2"
14,5892,22,"html-slider-response",7,42345,"0.0-2.0-0.5","A2","V1","A2 V1"
14,4235,93,"html-slider-response",8,46684,"0.0-2.0-0.6","B1","P1","B1 P1"
14,4386,62,"html-slider-response",9,51174,"0.0-2.0-0.7","W1","Y1","W1 Y1"
14,2355,44,"html-slider-response",10,53633,"0.0-2.0-0.8","H1","P1","H1 P1"
14,2294,80,"html-slider-response",11,56030,"0.0-2.0-0.9","O1","T1","O1 T1"
14,2666,71,"html-slider-response",12,58799,"0.0-2.0-0.10","I1","R1","I1 R1"
14,3246,90,"html-slider-response",13,62148,"0.0-2.0-0.11","A1","P1","A1 P1"
14,2896,65,"html-slider-response",14,65146,"0.0-2.0-0.12","C2","I1","C2 I1"
14,2654,40,"html-slider-response",15,67902,"0.0-2.0-0.13","P1","T1","P1 T1"
14,2600,28,"html-slider-response",16,70606,"0.0-2.0-0.14","E1","T1","E1 T1"
14,2783,60,"html-slider-response",17,73496,"0.0-2.0-0.15","R1","U1","R1 U1"
14,2365,42,"html-slider-response",18,75963,"0.0-2.0-0.16","F1","Y1","F1 Y1"
14,4431,80,"html-slider-response",19,80498,"0.0-2.0-0.17","O1","X1","O1 X1"
14,4398,60,"html-slider-response",20,84998,"0.0-2.0-0.18","E1","W1","E1 W1"
14,2445,42,"html-slider-response",21,87546,"0.0-2.0-0.19","A2","S1","A2 S1"
14,2327,25,"html-slider-response",22,89977,"0.0-2.0-0.20","A2","W1","A2 W1"
14,2908,65,"html-slider-response",23,92991,"0.0-2.0-0.21","O1","Y1","O1 Y1"
14,2876,43,"html-slider-response",24,95972,"0.0-2.0-0.22","A1","V1","A1 V1"
14,5920,21,"html-slider-response",25,101996,"0.0-2.0-0.23","G1","N1","G1 N1"
14,3914,57,"html-slider-response",26,106014,"0.0-2.0-0.24","M1","O1","M1 O1"
14,4432,57,"html-slider-response",27,110547,"0.0-2.0-0.25","I1","X1","I1 X1"
14,2585,41,"html-slider-response",28,113234,"0.0-2.0-0.26","A2","G1","A2 G1"
15,4593,14,"html-slider-response",2,19981,"0.0-2.0-0.0","B1","E1","B1 E1"
15,2147,82,"html-slider-response",3,22230,"0.0-2.0-0.1","B2","N1","B2 N1"
15,1642,84,"html-slider-response",4,23975,"0.0-2.0-0.2","I1","T1","I1 T1"
15,1651,91,"html-slider-response",5,25728,"0.0-2.0-0.3","F1","W1","F1 W1"
15,5989,43,"html-slider-response",6,31820,"0.0-2.0-0.4","M1","Z1","M1 Z1"
15,1793,61,"html-slider-response",7,33717,"0.0-2.0-0.5","S1","U1","S1 U1"
15,2171,33,"html-slider-response",8,35991,"0.0-2.0-0.6","P1","W1","P1 W1"
15,1921,64,"html-slider-response",9,38016,"0.0-2.0-0.7","V1","W1","V1 W1"
15,1987,9,"html-slider-response",10,40105,"0.0-2.0-0.8","C2","F1","C2 F1"
15,2075,24,"html-slider-response",11,42282,"0.0-2.0-0.9","J1","S1","J1 S1"
15,1971,30,"html-slider-response",12,44355,"0.0-2.0-0.10","M1","Q1","M1 Q1"
15,2135,28,"html-slider-response",13,46596,"0.0-2.0-0.11","E1","Q1","E1 Q1"
15,1713,82,"html-slider-response",14,48413,"0.0-2.0-0.12","W1","Z1","W1 Z1"
15,2131,95,"html-slider-response",15,50646,"0.0-2.0-0.13","H1","Y1","H1 Y1"
15,2035,38,"html-slider-response",16,52784,"0.0-2.0-0.14","Q1","X1","Q1 X1"
15,2586,6,"html-slider-response",17,55473,"0.0-2.0-0.15","E1","G1","E1 G1"
15,3157,79,"html-slider-response",18,58732,"0.0-2.0-0.16","T1","X1","T1 X1"
15,1664,60,"html-slider-response",19,60500,"0.0-2.0-0.17","F1","U1","F1 U1"
15,2307,31,"html-slider-response",20,62910,"0.0-2.0-0.18","M1","X1","M1 X1"
15,1619,16,"html-slider-response",21,64631,"0.0-2.0-0.19","B1","O1","B1 O1"
15,1682,31,"html-slider-response",22,66415,"0.0-2.0-0.20","P1","S1","P1 S1"
15,1457,89,"html-slider-response",23,67977,"0.0-2.0-0.21","B2","X1","B2 X1"
15,1591,22,"html-slider-response",24,69674,"0.0-2.0-0.22","B1","W1","B1 W1"
15,1561,82,"html-slider-response",25,71338,"0.0-2.0-0.23","J1","Z1","J1 Z1"
15,1732,32,"html-slider-response",26,73172,"0.0-2.0-0.24","I1","L1","I1 L1"
15,2314,34,"html-slider-response",27,75589,"0.0-2.0-0.25","L1","Q1","L1 Q1"
15,1721,35,"html-slider-response",28,77414,"0.0-2.0-0.26","A1","B2","A1 B2"
16,14382,0,"html-slider-response",2,65215,"0.0-2.0-0.0","G1","J1","G1 J1"
16,11326,0,"html-slider-response",3,76662,"0.0-2.0-0.1","G1","L1","G1 L1"
16,7919,0,"html-slider-response",4,84691,"0.0-2.0-0.2","L1","P1","L1 P1"
16,7269,0,"html-slider-response",5,92083,"0.0-2.0-0.3","B1","H1","B1 H1"
16,12134,76,"html-slider-response",6,104330,"0.0-2.0-0.4","E1","X1","E1 X1"
16,5828,0,"html-slider-response",7,110280,"0.0-2.0-0.5","C2","W1","C2 W1"
16,8341,0,"html-slider-response",8,118728,"0.0-2.0-0.6","P1","Y1","P1 Y1"
16,8567,1,"html-slider-response",9,127400,"0.0-2.0-0.7","B2","H1","B2 H1"
16,18203,85,"html-slider-response",10,145716,"0.0-2.0-0.8","A2","Z1","A2 Z1"
16,8189,0,"html-slider-response",11,154011,"0.0-2.0-0.9","L1","T1","L1 T1"
16,10117,0,"html-slider-response",12,164250,"0.0-2.0-0.10","K1","L1","K1 L1"
16,10075,0,"html-slider-response",13,174449,"0.0-2.0-0.11","A2","N1","A2 N1"
16,10474,0,"html-slider-response",14,185039,"0.0-2.0-0.12","C2","U1","C2 U1"
16,10532,1,"html-slider-response",15,195685,"0.0-2.0-0.13","A2","I1","A2 I1"
16,10567,0,"html-slider-response",16,206372,"0.0-2.0-0.14","S1","Z1","S1 Z1"
16,8975,0,"html-slider-response",17,215467,"0.0-2.0-0.15","G1","Q1","G1 Q1"
16,13253,9,"html-slider-response",18,228826,"0.0-2.0-0.16","E1","P1","E1 P1"
16,13724,1,"html-slider-response",19,242655,"0.0-2.0-0.17","C2","T1","C2 T1"
16,11890,0,"html-slider-response",20,254653,"0.0-2.0-0.18","A1","H1","A1 H1"
16,10279,0,"html-slider-response",21,265053,"0.0-2.0-0.19","E1","Z1","E1 Z1"
16,14912,78,"html-slider-response",22,280074,"0.0-2.0-0.20","J1","R1","J1 R1"
16,8976,0,"html-slider-response",23,289170,"0.0-2.0-0.21","L1","Y1","L1 Y1"
16,9323,81,"html-slider-response",24,298616,"0.0-2.0-0.22","K1","T1","K1 T1"
16,13196,73,"html-slider-response",25,311918,"0.0-2.0-0.23","N1","Q1","N1 Q1"
16,14389,0,"html-slider-response",26,326421,"0.0-2.0-0.24","B2","Q1","B2 Q1"
16,11876,18,"html-slider-response",27,338411,"0.0-2.0-0.25","F1","M1","F1 M1"
16,10720,3,"html-slider-response",28,349242,"0.0-2.0-0.26","A1","Q1","A1 Q1"
17,12106,69,"html-slider-response",2,51897,"0.0-2.0-0.0","B2","I1","B2 I1"
17,2421,16,"html-slider-response",3,54420,"0.0-2.0-0.1","C2","M1","C2 M1"
17,7071,0,"html-slider-response",4,61595,"0.0-2.0-0.2","A2","Y1","A2 Y1"
17,3971,43,"html-slider-response",5,65668,"0.0-2.0-0.3","A1","N1","A1 N1"
17,3660,36,"html-slider-response",6,69430,"0.0-2.0-0.4","A2","J1","A2 J1"
17,20943,35,"html-slider-response",7,90476,"0.0-2.0-0.5","G1","I1","G1 I1"
17,3772,29,"html-slider-response",8,94351,"0.0-2.0-0.6","G1","R1","G1 R1"
17,1990,21,"html-slider-response",9,96443,"0.0-2.0-0.7","B1","Z1","B1 Z1"
17,2295,16,"html-slider-response",10,98840,"0.0-2.0-0.8","B1","F1","B1 F1"
17,2718,51,"html-slider-response",11,101660,"0.0-2.0-0.9","P1","Q1","P1 Q1"
17,2670,44,"html-slider-response",12,104432,"0.0-2.0-0.10","E1","K1","E1 K1"
17,2157,23,"html-slider-response",13,106692,"0.0-2.0-0.11","G1","P1","G1 P1"
17,10115,17,"html-slider-response",14,116910,"0.0-2.0-0.12","F1","G1","F1 G1"
17,1872,59,"html-slider-response",15,118885,"0.0-2.0-0.13","R1","V1","R1 V1"
17,2135,62,"html-slider-response",16,121121,"0.0-2.0-0.14","E1","S1","E1 S1"
17,2805,69,"html-slider-response",17,124028,"0.0-2.0-0.15","A1","B1","A1 B1"
17,12760,38,"html-slider-response",18,136890,"0.0-2.0-0.16","K1","N1","K1 N1"
17,7472,32,"html-slider-response",19,144464,"0.0-2.0-0.17","A2","U1","A2 U1"
17,3508,16,"html-slider-response",20,148075,"0.0-2.0-0.18","A1","I1","A1 I1"
17,2614,76,"html-slider-response",21,150790,"0.0-2.0-0.19","N1","R1","N1 R1"
17,2142,71,"html-slider-response",22,153034,"0.0-2.0-0.20","B2","L1","B2 L1"
17,2086,64,"html-slider-response",23,155223,"0.0-2.0-0.21","Q1","S1","Q1 S1"
17,1750,68,"html-slider-response",24,157076,"0.0-2.0-0.22","A1","S1","A1 S1"
17,1782,71,"html-slider-response",25,158961,"0.0-2.0-0.23","M1","S1","M1 S1"
17,2175,39,"html-slider-response",26,161238,"0.0-2.0-0.24","M1","V1","M1 V1"
17,2262,63,"html-slider-response",27,163602,"0.0-2.0-0.25","A2","P1","A2 P1"
17,2407,52,"html-slider-response",28,166111,"0.0-2.0-0.26","C2","H1","C2 H1"
18,5710,37,"html-slider-response",2,21593,"0.0-2.0-0.0","B1","T1","B1 T1"
18,6296,26,"html-slider-response",3,27992,"0.0-2.0-0.1","J1","Q1","J1 Q1"
18,3160,34,"html-slider-response",4,31254,"0.0-2.0-0.2","I1","O1","I1 O1"
18,4702,77,"html-slider-response",5,36058,"0.0-2.0-0.3","F1","V1","F1 V1"
18,2382,0,"html-slider-response",6,38542,"0.0-2.0-0.4","B1","V1","B1 V1"
18,3717,66,"html-slider-response",7,42363,"0.0-2.0-0.5","S1","T1","S1 T1"
18,2774,0,"html-slider-response",8,45238,"0.0-2.0-0.6","M1","N1","M1 N1"
18,4380,80,"html-slider-response",9,49720,"0.0-2.0-0.7","O1","P1","O1 P1"
18,3332,0,"html-slider-response",10,53154,"0.0-2.0-0.8","G1","Z1","G1 Z1"
18,4300,0,"html-slider-response",11,57556,"0.0-2.0-0.9","U1","Y1","U1 Y1"
18,2624,0,"html-slider-response",12,60284,"0.0-2.0-0.10","B1","Q1","B1 Q1"
18,3815,65,"html-slider-response",13,64200,"0.0-2.0-0.11","S1","V1","S1 V1"
18,2500,61,"html-slider-response",14,66802,"0.0-2.0-0.12","B2","O1","B2 O1"
18,3079,0,"html-slider-response",15,69984,"0.0-2.0-0.13","B1","G1","B1 G1"
18,2829,58,"html-slider-response",16,72916,"0.0-2.0-0.14","A1","E1","A1 E1"
18,3349,87,"html-slider-response",17,76368,"0.0-2.0-0.15","V1","Z1","V1 Z1"
18,2374,2,"html-slider-response",18,78844,"0.0-2.0-0.16","B2","Y1","B2 Y1"
18,2292,62,"html-slider-response",19,81240,"0.0-2.0-0.17","V1","X1","V1 X1"
18,2444,73,"html-slider-response",20,83786,"0.0-2.0-0.18","N1","T1","N1 T1"
18,3961,34,"html-slider-response",21,87850,"0.0-2.0-0.19","B2","K1","B2 K1"
18,2303,100,"html-slider-response",22,90256,"0.0-2.0-0.20","N1","W1","N1 W1"
18,4439,80,"html-slider-response",23,94798,"0.0-2.0-0.21","W1","X1","W1 X1"
18,2767,31,"html-slider-response",24,97668,"0.0-2.0-0.22","J1","N1","J1 N1"
18,2491,100,"html-slider-response",25,100262,"0.0-2.0-0.23","R1","X1","R1 X1"
18,2263,100,"html-slider-response",26,102628,"0.0-2.0-0.24","R1","W1","R1 W1"
18,2192,0,"html-slider-response",27,104922,"0.0-2.0-0.25","C2","S1","C2 S1"
18,3491,66,"html-slider-response",28,108516,"0.0-2.0-0.26","B1","C2","B1 C2"
19,5260,68,"html-slider-response",2,20596,"0.0-2.0-0.0","L1","O1","L1 O1"
19,2369,63,"html-slider-response",3,23068,"0.0-2.0-0.1","A2","X1","A2 X1"
19,3393,42,"html-slider-response",4,26563,"0.0-2.0-0.2","K1","R1","K1 R1"
19,9370,40,"html-slider-response",5,36036,"0.0-2.0-0.3","F1","Q1","F1 Q1"
19,2601,35,"html-slider-response",6,38740,"0.0-2.0-0.4","H1","V1","H1 V1"
19,4129,56,"html-slider-response",7,42972,"0.0-2.0-0.5","B2","M1","B2 M1"
19,15137,60,"html-slider-response",8,58212,"0.0-2.0-0.6","L1","R1","L1 R1"
19,2329,59,"html-slider-response",9,60644,"0.0-2.0-0.7","O1","W1","O1 W1"
19,1907,59,"html-slider-response",10,62652,"0.0-2.0-0.8","B2","F1","B2 F1"
19,2803,61,"html-slider-response",11,65557,"0.0-2.0-0.9","B1","X1","B1 X1"
19,2866,64,"html-slider-response",12,68525,"0.0-2.0-0.10","J1","U1","J1 U1"
19,7769,52,"html-slider-response",13,76397,"0.0-2.0-0.11","I1","M1","I1 M1"
19,3426,61,"html-slider-response",14,79924,"0.0-2.0-0.12","K1","U1","K1 U1"
19,3027,41,"html-slider-response",15,83053,"0.0-2.0-0.13","Q1","R1","Q1 R1"
19,2153,64,"html-slider-response",16,85309,"0.0-2.0-0.14","T1","U1","T1 U1"
19,2930,60,"html-slider-response",17,88341,"0.0-2.0-0.15","J1","T1","J1 T1"
19,2530,44,"html-slider-response",18,90973,"0.0-2.0-0.16","B1","K1","B1 K1"
19,2001,66,"html-slider-response",19,93077,"0.0-2.0-0.17","A2","T1","A2 T1"
19,1682,65,"html-slider-response",20,94861,"0.0-2.0-0.18","I1","S1","I1 S1"
19,1658,59,"html-slider-response",21,96621,"0.0-2.0-0.19","O1","V1","O1 V1"
19,1819,63,"html-slider-response",22,98541,"0.0-2.0-0.20","F1","N1","F1 N1"
19,1794,67,"html-slider-response",23,100437,"0.0-2.0-0.21","I1","U1","I1 U1"
19,1642,63,"html-slider-response",24,102181,"0.0-2.0-0.22","O1","Z1","O1 Z1"
19,3122,75,"html-slider-response",25,105405,"0.0-2.0-0.23","K1","Z1","K1 Z1"
19,2041,70,"html-slider-response",26,107549,"0.0-2.0-0.24","I1","W1","I1 W1"
19,1770,70,"html-slider-response",27,109421,"0.0-2.0-0.25","M1","Y1","M1 Y1"
19,2826,70,"html-slider-response",28,112349,"0.0-2.0-0.26","J1","M1","J1 M1"
20,7534,0,"html-slider-response",2,40674,"0.0-2.0-0.0","E1","V1","E1 V1"
20,6584,68,"html-slider-response",3,47362,"0.0-2.0-0.1","A2","B1","A2 B1"
20,7288,0,"html-slider-response",4,54753,"0.0-2.0-0.2","G1","V1","G1 V1"
20,4024,4,"html-slider-response",5,58881,"0.0-2.0-0.3","S1","Y1","S1 Y1"
20,3119,0,"html-slider-response",6,62105,"0.0-2.0-0.4","C2","G1","C2 G1"
20,14905,88,"html-slider-response",7,77113,"0.0-2.0-0.5","J1","W1","J1 W1"
20,5462,91,"html-slider-response",8,82681,"0.0-2.0-0.6","I1","K1","I1 K1"
20,3946,8,"html-slider-response",9,86729,"0.0-2.0-0.7","Q1","V1","Q1 V1"
20,4552,11,"html-slider-response",10,91385,"0.0-2.0-0.8","C2","Q1","C2 Q1"
20,4368,9,"html-slider-response",11,95857,"0.0-2.0-0.9","G1","O1","G1 O1"
20,5481,15,"html-slider-response",12,101441,"0.0-2.0-0.10","F1","T1","F1 T1"
20,6297,82,"html-slider-response",13,107841,"0.0-2.0-0.11","H1","T1","H1 T1"
20,7352,69,"html-slider-response",14,115297,"0.0-2.0-0.12","B1","I1","B1 I1"
20,7289,24,"html-slider-response",15,122689,"0.0-2.0-0.13","B2","J1","B2 J1"
20,5738,35,"html-slider-response",16,128529,"0.0-2.0-0.14","T1","Z1","T1 Z1"
20,3482,13,"html-slider-response",17,132113,"0.0-2.0-0.15","H1","R1","H1 R1"
20,6305,11,"html-slider-response",18,138521,"0.0-2.0-0.16","N1","Z1","N1 Z1"
20,5168,15,"html-slider-response",19,143793,"0.0-2.0-0.17","Q1","Y1","Q1 Y1"
20,3746,10,"html-slider-response",20,147641,"0.0-2.0-0.18","F1","L1","F1 L1"
20,3490,15,"html-slider-response",21,151233,"0.0-2.0-0.19","C2","O1","C2 O1"
20,6418,8,"html-slider-response",22,157753,"0.0-2.0-0.20","H1","L1","H1 L1"
20,3121,12,"html-slider-response",23,160977,"0.0-2.0-0.21","F1","H1","F1 H1"
20,3850,11,"html-slider-response",24,164929,"0.0-2.0-0.22","B2","C2","B2 C2"
20,3994,7,"html-slider-response",25,169025,"0.0-2.0-0.23","J1","Y1","J1 Y1"
20,5625,75,"html-slider-response",26,174753,"0.0-2.0-0.24","E1","F1","E1 F1"
20,6321,8,"html-slider-response",27,181177,"0.0-2.0-0.25","A1","Y1","A1 Y1"
20,5853,65,"html-slider-response",28,187137,"0.0-2.0-0.26","H1","K1","H1 K1"
21,2444,59,"html-slider-response",2,155469,"0.0-2.0-0.0","A1","M1","A1 M1"
21,1122,43,"html-slider-response",3,156693,"0.0-2.0-0.1","H1","W1","H1 W1"
21,946,59,"html-slider-response",4,157741,"0.0-2.0-0.2","C2","K1","C2 K1"
21,978,63,"html-slider-response",5,158821,"0.0-2.0-0.3","B1","L1","B1 L1"
21,1041,48,"html-slider-response",6,159965,"0.0-2.0-0.4","Y1","Z1","Y1 Z1"
21,1233,61,"html-slider-response",7,161301,"0.0-2.0-0.5","H1","S1","H1 S1"
21,12802,37,"html-slider-response",8,174205,"0.0-2.0-0.6","G1","H1","G1 H1"
21,4306,64,"html-slider-response",9,178613,"0.0-2.0-0.7","K1","Y1","K1 Y1"
21,1315,42,"html-slider-response",10,180029,"0.0-2.0-0.8","A1","O1","A1 O1"
21,1187,52,"html-slider-response",11,181317,"0.0-2.0-0.9","O1","Q1","O1 Q1"
21,1049,44,"html-slider-response",12,182470,"0.0-2.0-0.10","M1","P1","M1 P1"
21,2585,47,"html-slider-response",13,185157,"0.0-2.0-0.11","K1","M1","K1 M1"
21,1058,65,"html-slider-response",14,186317,"0.0-2.0-0.12","B1","R1","B1 R1"
21,1043,37,"html-slider-response",15,187461,"0.0-2.0-0.13","G1","T1","G1 T1"
21,827,47,"html-slider-response",16,188389,"0.0-2.0-0.14","U1","W1","U1 W1"
21,1377,41,"html-slider-response",17,189869,"0.0-2.0-0.15","B1","N1","B1 N1"
21,3763,56,"html-slider-response",18,193734,"0.0-2.0-0.16","I1","V1","I1 V1"
21,1216,44,"html-slider-response",19,195053,"0.0-2.0-0.17","J1","P1","J1 P1"
21,939,37,"html-slider-response",20,196093,"0.0-2.0-0.18","Q1","W1","Q1 W1"
21,1274,46,"html-slider-response",21,197469,"0.0-2.0-0.19","M1","T1","M1 T1"
21,1058,57,"html-slider-response",22,198629,"0.0-2.0-0.20","G1","S1","G1 S1"
21,1490,43,"html-slider-response",23,200221,"0.0-2.0-0.21","H1","X1","H1 X1"
21,1035,53,"html-slider-response",24,201357,"0.0-2.0-0.22","K1","O1","K1 O1"
21,915,62,"html-slider-response",25,202373,"0.0-2.0-0.23","G1","W1","G1 W1"
21,978,44,"html-slider-response",26,203453,"0.0-2.0-0.24","C2","X1","C2 X1"
21,786,53,"html-slider-response",27,204341,"0.0-2.0-0.25","F1","I1","F1 I1"
21,947,60,"html-slider-response",28,205389,"0.0-2.0-0.26","B1","M1","B1 M1"
22,5399,12,"html-slider-response",2,1238760,"0.0-2.0-0.0","N1","V1","N1 V1"
22,2938,6,"html-slider-response",3,1241810,"0.0-2.0-0.1","H1","N1","H1 N1"
22,3098,30,"html-slider-response",4,1245020,"0.0-2.0-0.2","R1","Y1","R1 Y1"
22,3171,35,"html-slider-response",5,1248313,"0.0-2.0-0.3","Q1","U1","Q1 U1"
22,2701,41,"html-slider-response",6,1251119,"0.0-2.0-0.4","X1","Y1","X1 Y1"
22,3442,25,"html-slider-response",7,1254670,"0.0-2.0-0.5","I1","Q1","I1 Q1"
22,5156,60,"html-slider-response",8,1259940,"0.0-2.0-0.6","E1","I1","E1 I1"
22,3238,36,"html-slider-response",9,1263286,"0.0-2.0-0.7","L1","V1","L1 V1"
22,60823,42,"html-slider-response",10,1324220,"0.0-2.0-0.8","J1","L1","J1 L1"
22,5116,57,"html-slider-response",11,1329453,"0.0-2.0-0.9","R1","S1","R1 S1"
22,2342,61,"html-slider-response",12,1331904,"0.0-2.0-0.10","N1","P1","N1 P1"
22,2493,72,"html-slider-response",13,1334504,"0.0-2.0-0.11","E1","N1","E1 N1"
22,3825,24,"html-slider-response",14,1338435,"0.0-2.0-0.12","A2","B2","A2 B2"
22,2743,82,"html-slider-response",15,1341287,"0.0-2.0-0.13","A1","U1","A1 U1"
22,2721,16,"html-slider-response",16,1344119,"0.0-2.0-0.14","C2","V1","C2 V1"
22,3024,69,"html-slider-response",17,1347252,"0.0-2.0-0.15","B1","J1","B1 J1"
22,2695,95,"html-slider-response",18,1350060,"0.0-2.0-0.16","P1","U1","P1 U1"
22,3506,35,"html-slider-response",19,1353673,"0.0-2.0-0.17","B2","P1","B2 P1"
22,2275,86,"html-slider-response",20,1356063,"0.0-2.0-0.18","A1","A2","A1 A2"
22,2420,79,"html-slider-response",21,1358590,"0.0-2.0-0.19","A2","M1","A2 M1"
22,2962,35,"html-slider-response",22,1361664,"0.0-2.0-0.20","A1","G1","A1 G1"
22,2820,66,"html-slider-response",23,1364594,"0.0-2.0-0.21","E1","Y1","E1 Y1"
22,1818,86,"html-slider-response",24,1366521,"0.0-2.0-0.22","I1","J1","I1 J1"
22,2060,78,"html-slider-response",25,1368693,"0.0-2.0-0.23","B2","R1","B2 R1"
22,1967,67,"html-slider-response",26,1370768,"0.0-2.0-0.24","M1","R1","M1 R1"
22,3269,39,"html-slider-response",27,1374148,"0.0-2.0-0.25","P1","X1","P1 X1"
22,1847,65,"html-slider-response",28,1376101,"0.0-2.0-0.26","H1","O1","H1 O1"
23,9775,52,"html-slider-response",2,27804,"0.0-2.0-0.0","J1","K1","J1 K1"
23,7076,36,"html-slider-response",3,34982,"0.0-2.0-0.1","A1","W1","A1 W1"
23,4993,9,"html-slider-response",4,40079,"0.0-2.0-0.2","L1","M1","L1 M1"
23,3141,14,"html-slider-response",5,43321,"0.0-2.0-0.3","V1","Y1","V1 Y1"
23,2538,3,"html-slider-response",6,45961,"0.0-2.0-0.4","A1","F1","A1 F1"
23,3323,20,"html-slider-response",7,49386,"0.0-2.0-0.5","A2","R1","A2 R1"
23,2850,3,"html-slider-response",8,52339,"0.0-2.0-0.6","F1","K1","F1 K1"
23,3979,54,"html-slider-response",9,56420,"0.0-2.0-0.7","B2","U1","B2 U1"
23,3451,55,"html-slider-response",10,59974,"0.0-2.0-0.8","M1","U1","M1 U1"
23,2849,7,"html-slider-response",11,62926,"0.0-2.0-0.9","O1","S1","O1 S1"
23,3876,16,"html-slider-response",12,66904,"0.0-2.0-0.10","A1","L1","A1 L1"
23,2585,9,"html-slider-response",13,69592,"0.0-2.0-0.11","C2","Y1","C2 Y1"
23,3369,0,"html-slider-response",14,73065,"0.0-2.0-0.12","L1","N1","L1 N1"
23,3131,24,"html-slider-response",15,76298,"0.0-2.0-0.13","H1","M1","H1 M1"
23,3371,3,"html-slider-response",16,79773,"0.0-2.0-0.14","N1","X1","N1 X1"
23,2906,17,"html-slider-response",17,82780,"0.0-2.0-0.15","J1","X1","J1 X1"
23,2642,8,"html-slider-response",18,85526,"0.0-2.0-0.16","C2","J1","C2 J1"
23,2831,0,"html-slider-response",19,88462,"0.0-2.0-0.17","K1","Q1","K1 Q1"
23,1948,2,"html-slider-response",20,90511,"0.0-2.0-0.18","A1","T1","A1 T1"
23,3324,1,"html-slider-response",21,93936,"0.0-2.0-0.19","K1","W1","K1 W1"
23,3258,5,"html-slider-response",22,97297,"0.0-2.0-0.20","K1","S1","K1 S1"
23,2362,4,"html-slider-response",23,99762,"0.0-2.0-0.21","P1","V1","P1 V1"
23,2001,6,"html-slider-response",24,101867,"0.0-2.0-0.22","A2","E1","A2 E1"
23,2771,3,"html-slider-response",25,104739,"0.0-2.0-0.23","B1","B2","B1 B2"
23,2043,3,"html-slider-response",26,106885,"0.0-2.0-0.24","S1","X1","S1 X1"
23,3137,0,"html-slider-response",27,110125,"0.0-2.0-0.25","C2","N1","C2 N1"
23,2386,2,"html-slider-response",28,112615,"0.0-2.0-0.26","A2","O1","A2 O1"
24,13395,68,"html-slider-response",2,46464,"0.0-2.0-0.0","O1","U1","O1 U1"
24,8494,16,"html-slider-response",3,55062,"0.0-2.0-0.1","B1","Y1","B1 Y1"
24,8298,87,"html-slider-response",4,63463,"0.0-2.0-0.2","U1","V1","U1 V1"
24,2843,0,"html-slider-response",5,66409,"0.0-2.0-0.3","E1","R1","E1 R1"
24,6841,19,"html-slider-response",6,73352,"0.0-2.0-0.4","A1","Z1","A1 Z1"
24,11711,0,"html-slider-response",7,85165,"0.0-2.0-0.5","F1","S1","F1 S1"
24,5074,1,"html-slider-response",8,90343,"0.0-2.0-0.6","T1","V1","T1 V1"
24,3671,27,"html-slider-response",9,94116,"0.0-2.0-0.7","A2","L1","A2 L1"
24,4080,7,"html-slider-response",10,98298,"0.0-2.0-0.8","L1","W1","L1 W1"
24,3000,0,"html-slider-response",11,101402,"0.0-2.0-0.9","A2","H1","A2 H1"
24,8253,29,"html-slider-response",12,109758,"0.0-2.0-0.10","H1","J1","H1 J1"
24,2344,0,"html-slider-response",13,112204,"0.0-2.0-0.11","G1","U1","G1 U1"
24,3210,43,"html-slider-response",14,115516,"0.0-2.0-0.12","F1","X1","F1 X1"
24,7346,19,"html-slider-response",15,122964,"0.0-2.0-0.13","X1","Z1","X1 Z1"
24,4416,10,"html-slider-response",16,127482,"0.0-2.0-0.14","C2","Z1","C2 Z1"
24,4612,35,"html-slider-response",17,132196,"0.0-2.0-0.15","N1","O1","N1 O1"
24,12805,15,"html-slider-response",18,145104,"0.0-2.0-0.16","H1","Z1","H1 Z1"
24,9242,0,"html-slider-response",19,154450,"0.0-2.0-0.17","K1","V1","K1 V1"
24,5464,0,"html-slider-response",20,160018,"0.0-2.0-0.18","A2","C2","A2 C2"
24,4542,57,"html-slider-response",21,164663,"0.0-2.0-0.19","K1","X1","K1 X1"
24,73957,41,"html-slider-response",22,238722,"0.0-2.0-0.20","T1","W1","T1 W1"
24,93903,15,"html-slider-response",23,332729,"0.0-2.0-0.21","B2","Z1","B2 Z1"
24,83837,0,"html-slider-response",24,416671,"0.0-2.0-0.22","P1","R1","P1 R1"
24,7153,45,"html-slider-response",25,423929,"0.0-2.0-0.23","E1","O1","E1 O1"
24,5329,34,"html-slider-response",26,429360,"0.0-2.0-0.24","U1","Z1","U1 Z1"
24,3547,89,"html-slider-response",27,433011,"0.0-2.0-0.25","J1","O1","J1 O1"
24,11209,12,"html-slider-response",28,444323,"0.0-2.0-0.26","H1","U1","H1 U1"
25,32847,54,"html-slider-response",2,59387,"0.0-2.0-0.0","F1","Z1","F1 Z1"
25,16917,44,"html-slider-response",3,76413,"0.0-2.0-0.1","I1","Z1","I1 Z1"
25,6259,21,"html-slider-response",4,82779,"0.0-2.0-0.2","G1","K1","G1 K1"
25,24815,46,"html-slider-response",5,107698,"0.0-2.0-0.3","L1","X1","L1 X1"
25,5479,15,"html-slider-response",6,113283,"0.0-2.0-0.4","R1","Z1","R1 Z1"
25,14302,49,"html-slider-response",7,127689,"0.0-2.0-0.5","P1","Z1","P1 Z1"
25,5997,38,"html-slider-response",8,133792,"0.0-2.0-0.6","A1","X1","A1 X1"
25,14542,43,"html-slider-response",9,148435,"0.0-2.0-0.7","B2","T1","B2 T1"
25,45380,54,"html-slider-response",10,193919,"0.0-2.0-0.8","F1","J1","F1 J1"
25,6843,52,"html-slider-response",11,200871,"0.0-2.0-0.9","E1","L1","E1 L1"
25,4510,30,"html-slider-response",12,205482,"0.0-2.0-0.10","T1","Y1","T1 Y1"
25,10348,58,"html-slider-response",13,215934,"0.0-2.0-0.11","N1","S1","N1 S1"
25,5775,58,"html-slider-response",14,221814,"0.0-2.0-0.12","Q1","T1","Q1 T1"
25,11456,55,"html-slider-response",15,233379,"0.0-2.0-0.13","L1","S1","L1 S1"
25,5478,74,"html-slider-response",16,238959,"0.0-2.0-0.14","B1","S1","B1 S1"
25,12061,59,"html-slider-response",17,251121,"0.0-2.0-0.15","B2","W1","B2 W1"
25,10360,65,"html-slider-response",18,261586,"0.0-2.0-0.16","H1","I1","H1 I1"
25,7522,65,"html-slider-response",19,269214,"0.0-2.0-0.17","H1","Q1","H1 Q1"
25,4586,34,"html-slider-response",20,273906,"0.0-2.0-0.18","E1","H1","E1 H1"
25,3325,34,"html-slider-response",21,277336,"0.0-2.0-0.19","C2","P1","C2 P1"
25,6745,51,"html-slider-response",22,284186,"0.0-2.0-0.20","B2","G1","B2 G1"
25,3323,37,"html-slider-response",23,287615,"0.0-2.0-0.21","N1","Y1","N1 Y1"
25,6463,36,"html-slider-response",24,294182,"0.0-2.0-0.22","L1","Z1","L1 Z1"
25,11954,53,"html-slider-response",25,306241,"0.0-2.0-0.23","E1","J1","E1 J1"
25,2109,31,"html-slider-response",26,308455,"0.0-2.0-0.24","A1","J1","A1 J1"
25,5218,59,"html-slider-response",27,313776,"0.0-2.0-0.25","F1","O1","F1 O1"
25,3729,34,"html-slider-response",28,317612,"0.0-2.0-0.26","F1","P1","F1 P1"
26,2400,62,"html-slider-response",2,18193,"0.0-2.0-0.0","L1","U1","L1 U1"
26,2412,35,"html-slider-response",3,20709,"0.0-2.0-0.1","G1","Y1","G1 Y1"
26,2104,38,"html-slider-response",4,22916,"0.0-2.0-0.2","I1","Y1","I1 Y1"
26,2221,59,"html-slider-response",5,25242,"0.0-2.0-0.3","J1","V1","J1 V1"
26,1881,19,"html-slider-response",6,27227,"0.0-2.0-0.4","C2","E1","C2 E1"
26,2104,63,"html-slider-response",7,29434,"0.0-2.0-0.5","I1","P1","I1 P1"
26,2453,98,"html-slider-response",8,31995,"0.0-2.0-0.6","F1","R1","F1 R1"
26,1968,76,"html-slider-response",9,34067,"0.0-2.0-0.7","I1","N1","I1 N1"
26,2251,59,"html-slider-response",10,36421,"0.0-2.0-0.8","E1","M1","E1 M1"
26,1848,33,"html-slider-response",11,38373,"0.0-2.0-0.9","A2","Q1","A2 Q1"
26,1819,62,"html-slider-response",12,40297,"0.0-2.0-0.10","G1","M1","G1 M1"
26,1914,26,"html-slider-response",13,42316,"0.0-2.0-0.11","R1","T1","R1 T1"
26,2172,80,"html-slider-response",14,44592,"0.0-2.0-0.12","O1","R1","O1 R1"
26,3093,72,"html-slider-response",15,47789,"0.0-2.0-0.13","K1","P1","K1 P1"
26,2892,64,"html-slider-response",16,50788,"0.0-2.0-0.14","C2","L1","C2 L1"
26,3452,18,"html-slider-response",17,54345,"0.0-2.0-0.15","A1","R1","A1 R1"
26,2741,69,"html-slider-response",18,57191,"0.0-2.0-0.16","B2","V1","B2 V1"
26,2067,68,"html-slider-response",19,59362,"0.0-2.0-0.17","N1","U1","N1 U1"
26,2145,28,"html-slider-response",20,61610,"0.0-2.0-0.18","A2","K1","A2 K1"
26,2119,30,"html-slider-response",21,63833,"0.0-2.0-0.19","M1","W1","M1 W1"
26,2161,65,"html-slider-response",22,66098,"0.0-2.0-0.20","B2","S1","B2 S1"
26,2415,57,"html-slider-response",23,68617,"0.0-2.0-0.21","A2","F1","A2 F1"
26,1925,9,"html-slider-response",24,70645,"0.0-2.0-0.22","C2","R1","C2 R1"
26,1775,31,"html-slider-response",25,72523,"0.0-2.0-0.23","A1","K1","A1 K1"
26,2785,76,"html-slider-response",26,75411,"0.0-2.0-0.24","Q1","Z1","Q1 Z1"
26,2095,69,"html-slider-response",27,77610,"0.0-2.0-0.25","B2","E1","B2 E1"
26,1906,71,"html-slider-response",28,79620,"0.0-2.0-0.26","U1","X1","U1 X1"
27,5933,31,"html-slider-response",2,22111,"0.0-2.0-0.0","C2","I1","C2 I1"
27,3043,21,"html-slider-response",3,25257,"0.0-2.0-0.1","G1","N1","G1 N1"
27,2727,28,"html-slider-response",4,28086,"0.0-2.0-0.2","A1","C2","A1 C2"
27,2388,0,"html-slider-response",5,30578,"0.0-2.0-0.3","A1","V1","A1 V1"
27,3109,48,"html-slider-response",6,33791,"0.0-2.0-0.4","H1","P1","H1 P1"
27,3010,21,"html-slider-response",7,36903,"0.0-2.0-0.5","O1","T1","O1 T1"
27,2554,15,"html-slider-response",8,39562,"0.0-2.0-0.6","F1","Y1","F1 Y1"
27,2845,12,"html-slider-response",9,42511,"0.0-2.0-0.7","M1","O1","M1 O1"
27,106826,16,"html-slider-response",10,149440,"0.0-2.0-0.8","S1","W1","S1 W1"
27,2500,30,"html-slider-response",11,152044,"0.0-2.0-0.9","P1","T1","P1 T1"
27,96260,34,"html-slider-response",12,248410,"0.0-2.0-0.10","A2","V1","A2 V1"
27,5644,31,"html-slider-response",13,254160,"0.0-2.0-0.11","E1","T1","E1 T1"
27,2541,100,"html-slider-response",14,256806,"0.0-2.0-0.12","B1","P1","B1 P1"
27,2219,100,"html-slider-response",15,259128,"0.0-2.0-0.13","A2","W1","A2 W1"
27,2681,64,"html-slider-response",16,261913,"0.0-2.0-0.14","E1","U1","E1 U1"
27,3379,47,"html-slider-response",17,265395,"0.0-2.0-0.15","E1","W1","E1 W1"
27,2566,33,"html-slider-response",18,268064,"0.0-2.0-0.16","A1","P1","A1 P1"
27,2831,0,"html-slider-response",19,270999,"0.0-2.0-0.17","I1","R1","I1 R1"
27,3371,73,"html-slider-response",20,274473,"0.0-2.0-0.18","I1","X1","I1 X1"
27,9431,20,"html-slider-response",21,284005,"0.0-2.0-0.19","R1","U1","R1 U1"
27,32047,24,"html-slider-response",22,316157,"0.0-2.0-0.20","B1","U1","B1 U1"
27,17059,25,"html-slider-response",23,333320,"0.0-2.0-0.21","O1","X1","O1 X1"
27,8055,24,"html-slider-response",24,341478,"0.0-2.0-0.22","G1","X1","G1 X1"
27,13367,24,"html-slider-response",25,354947,"0.0-2.0-0.23","A2","S1","A2 S1"
27,3583,29,"html-slider-response",26,358636,"0.0-2.0-0.24","A2","G1","A2 G1"
27,6709,35,"html-slider-response",27,365447,"0.0-2.0-0.25","W1","Y1","W1 Y1"
27,1485,23,"html-slider-response",28,367034,"0.0-2.0-0.26","O1","Y1","O1 Y1"
28,6543,19,"html-slider-response",2,22449,"0.0-2.0-0.0","B1","W1","B1 W1"
28,2518,61,"html-slider-response",3,25072,"0.0-2.0-0.1","J1","Z1","J1 Z1"
28,2398,40,"html-slider-response",4,27574,"0.0-2.0-0.2","M1","X1","M1 X1"
28,3641,76,"html-slider-response",5,31318,"0.0-2.0-0.3","F1","W1","F1 W1"
28,2697,75,"html-slider-response",6,34120,"0.0-2.0-0.4","T1","X1","T1 X1"
28,3062,32,"html-slider-response",7,37286,"0.0-2.0-0.5","L1","Q1","L1 Q1"
28,2572,20,"html-slider-response",8,39964,"0.0-2.0-0.6","A1","B2","A1 B2"
28,2884,4,"html-slider-response",9,42952,"0.0-2.0-0.7","E1","G1","E1 G1"
28,2233,65,"html-slider-response",10,45290,"0.0-2.0-0.8","S1","U1","S1 U1"
28,2466,32,"html-slider-response",11,47860,"0.0-2.0-0.9","M1","Z1","M1 Z1"
28,2628,66,"html-slider-response",12,50593,"0.0-2.0-0.10","I1","T1","I1 T1"
28,2286,40,"html-slider-response",13,52985,"0.0-2.0-0.11","I1","L1","I1 L1"
28,2365,66,"html-slider-response",14,55452,"0.0-2.0-0.12","F1","U1","F1 U1"
28,2057,44,"html-slider-response",15,57612,"0.0-2.0-0.13","J1","S1","J1 S1"
28,2001,20,"html-slider-response",16,59716,"0.0-2.0-0.14","M1","Q1","M1 Q1"
28,2297,42,"html-slider-response",17,62117,"0.0-2.0-0.15","P1","S1","P1 S1"
28,2272,87,"html-slider-response",18,64492,"0.0-2.0-0.16","V1","W1","V1 W1"
28,2316,65,"html-slider-response",19,66914,"0.0-2.0-0.17","B2","X1","B2 X1"
28,2435,73,"html-slider-response",20,69454,"0.0-2.0-0.18","W1","Z1","W1 Z1"
28,2549,26,"html-slider-response",21,72108,"0.0-2.0-0.19","Q1","X1","Q1 X1"
28,3487,10,"html-slider-response",22,75698,"0.0-2.0-0.20","B1","O1","B1 O1"
28,2348,6,"html-slider-response",23,78152,"0.0-2.0-0.21","B1","E1","B1 E1"
28,2473,21,"html-slider-response",24,80728,"0.0-2.0-0.22","C2","F1","C2 F1"
28,1947,86,"html-slider-response",25,82780,"0.0-2.0-0.23","B2","N1","B2 N1"
28,1838,34,"html-slider-response",26,84722,"0.0-2.0-0.24","P1","W1","P1 W1"
28,5430,90,"html-slider-response",27,90256,"0.0-2.0-0.25","H1","Y1","H1 Y1"
28,2008,30,"html-slider-response",28,92369,"0.0-2.0-0.26","E1","Q1","E1 Q1"
29,4870,56,"html-slider-response",2,22532,"0.0-2.0-0.0","K1","T1","K1 T1"
29,4435,41,"html-slider-response",3,27075,"0.0-2.0-0.1","P1","Y1","P1 Y1"
29,3578,15,"html-slider-response",4,30760,"0.0-2.0-0.2","B2","Q1","B2 Q1"
29,5455,52,"html-slider-response",5,36320,"0.0-2.0-0.3","G1","L1","G1 L1"
29,4893,44,"html-slider-response",6,41318,"0.0-2.0-0.4","A2","I1","A2 I1"
29,3777,40,"html-slider-response",7,45200,"0.0-2.0-0.5","G1","Q1","G1 Q1"
29,2929,41,"html-slider-response",8,48233,"0.0-2.0-0.6","A2","N1","A2 N1"
29,2876,42,"html-slider-response",9,51217,"0.0-2.0-0.7","L1","Y1","L1 Y1"
29,2897,44,"html-slider-response",10,54220,"0.0-2.0-0.8","E1","X1","E1 X1"
29,3095,40,"html-slider-response",11,57419,"0.0-2.0-0.9","B1","H1","B1 H1"
29,4459,53,"html-slider-response",12,61983,"0.0-2.0-0.10","S1","Z1","S1 Z1"
29,2632,46,"html-slider-response",13,64719,"0.0-2.0-0.11","A1","H1","A1 H1"
29,3332,45,"html-slider-response",14,68157,"0.0-2.0-0.12","G1","J1","G1 J1"
29,2828,55,"html-slider-response",15,71089,"0.0-2.0-0.13","L1","T1","L1 T1"
29,3888,41,"html-slider-response",16,75080,"0.0-2.0-0.14","C2","T1","C2 T1"
29,2720,54,"html-slider-response",17,77905,"0.0-2.0-0.15","B2","H1","B2 H1"
29,3155,53,"html-slider-response",18,81164,"0.0-2.0-0.16","C2","W1","C2 W1"
29,3105,27,"html-slider-response",19,84374,"0.0-2.0-0.17","N1","Q1","N1 Q1"
29,2962,42,"html-slider-response",20,87443,"0.0-2.0-0.18","F1","M1","F1 M1"
29,2714,41,"html-slider-response",21,90260,"0.0-2.0-0.19","E1","Z1","E1 Z1"
29,2434,57,"html-slider-response",22,92798,"0.0-2.0-0.20","J1","R1","J1 R1"
29,3658,44,"html-slider-response",23,96560,"0.0-2.0-0.21","A2","Z1","A2 Z1"
29,4734,45,"html-slider-response",24,101401,"0.0-2.0-0.22","A1","Q1","A1 Q1"
29,2810,53,"html-slider-response",25,104323,"0.0-2.0-0.23","C2","U1","C2 U1"
29,3124,68,"html-slider-response",26,107553,"0.0-2.0-0.24","K1","L1","K1 L1"
29,2928,45,"html-slider-response",27,110585,"0.0-2.0-0.25","E1","P1","E1 P1"
29,3934,29,"html-slider-response",28,114623,"0.0-2.0-0.26","L1","P1","L1 P1"
30,5043,0,"html-slider-response",2,14855,"0.0-2.0-0.0","B2","L1","B2 L1"
30,2588,100,"html-slider-response",3,17547,"0.0-2.0-0.1","C2","H1","C2 H1"
30,2516,0,"html-slider-response",4,20164,"0.0-2.0-0.2","A2","J1","A2 J1"
30,3312,100,"html-slider-response",5,23577,"0.0-2.0-0.3","G1","P1","G1 P1"
30,4414,87,"html-slider-response",6,28093,"0.0-2.0-0.4","R1","V1","R1 V1"
30,2476,100,"html-slider-response",7,30671,"0.0-2.0-0.5","N1","R1","N1 R1"
30,3397,100,"html-slider-response",8,34171,"0.0-2.0-0.6","B1","F1","B1 F1"
30,2233,85,"html-slider-response",9,36506,"0.0-2.0-0.7","A2","U1","A2 U1"
30,2194,73,"html-slider-response",10,38801,"0.0-2.0-0.8","B2","I1","B2 I1"
30,2897,0,"html-slider-response",11,41801,"0.0-2.0-0.9","B1","Z1","B1 Z1"
30,2374,0,"html-slider-response",12,44277,"0.0-2.0-0.10","Q1","S1","Q1 S1"
30,5612,0,"html-slider-response",13,49990,"0.0-2.0-0.11","E1","S1","E1 S1"
30,2531,0,"html-slider-response",14,52623,"0.0-2.0-0.12","P1","Q1","P1 Q1"
30,3763,100,"html-slider-response",15,56490,"0.0-2.0-0.13","A2","Y1","A2 Y1"
30,2403,100,"html-slider-response",16,58996,"0.0-2.0-0.14","K1","N1","K1 N1"
30,2144,87,"html-slider-response",17,61242,"0.0-2.0-0.15","M1","V1","M1 V1"
30,3023,0,"html-slider-response",18,64369,"0.0-2.0-0.16","F1","G1","F1 G1"
30,5047,0,"html-slider-response",19,69517,"0.0-2.0-0.17","G1","R1","G1 R1"
30,2697,0,"html-slider-response",20,72317,"0.0-2.0-0.18","A2","P1","A2 P1"
30,2551,0,"html-slider-response",21,74970,"0.0-2.0-0.19","G1","I1","G1 I1"
30,2163,0,"html-slider-response",22,77234,"0.0-2.0-0.20","E1","K1","E1 K1"
30,2154,0,"html-slider-response",23,79489,"0.0-2.0-0.21","A1","S1","A1 S1"
30,2341,0,"html-slider-response",24,81931,"0.0-2.0-0.22","C2","M1","C2 M1"
30,1931,0,"html-slider-response",25,83966,"0.0-2.0-0.23","A1","N1","A1 N1"
30,2053,0,"html-slider-response",26,86121,"0.0-2.0-0.24","M1","S1","M1 S1"
30,2359,0,"html-slider-response",27,88581,"0.0-2.0-0.25","A1","I1","A1 I1"
30,3453,0,"html-slider-response",28,92136,"0.0-2.0-0.26","A1","B1","A1 B1"
31,8430,20,"html-slider-response",2,55319,"0.0-2.0-0.0","B2","O1","B2 O1"
31,9154,4,"html-slider-response",3,64581,"0.0-2.0-0.1","S1","V1","S1 V1"
31,2576,3,"html-slider-response",4,67262,"0.0-2.0-0.2","A1","E1","A1 E1"
31,2817,2,"html-slider-response",5,70182,"0.0-2.0-0.3","B2","Y1","B2 Y1"
31,2504,76,"html-slider-response",6,72790,"0.0-2.0-0.4","B1","T1","B1 T1"
31,3671,72,"html-slider-response",7,76566,"0.0-2.0-0.5","N1","T1","N1 T1"
31,2463,8,"html-slider-response",8,79134,"0.0-2.0-0.6","G1","Z1","G1 Z1"
31,2490,11,"html-slider-response",9,81734,"0.0-2.0-0.7","U1","Y1","U1 Y1"
31,2776,17,"html-slider-response",10,84614,"0.0-2.0-0.8","B1","Q1","B1 Q1"
31,2776,74,"html-slider-response",11,87493,"0.0-2.0-0.9","B2","K1","B2 K1"
31,3111,86,"html-slider-response",12,90710,"0.0-2.0-0.10","V1","Z1","V1 Z1"
31,2528,58,"html-slider-response",13,93342,"0.0-2.0-0.11","F1","V1","F1 V1"
31,2729,91,"html-slider-response",14,96174,"0.0-2.0-0.12","J1","N1","J1 N1"
31,2504,75,"html-slider-response",15,98781,"0.0-2.0-0.13","M1","N1","M1 N1"
31,2312,66,"html-slider-response",16,101197,"0.0-2.0-0.14","S1","T1","S1 T1"
31,3625,34,"html-slider-response",17,104926,"0.0-2.0-0.15","C2","S1","C2 S1"
31,3545,35,"html-slider-response",18,108575,"0.0-2.0-0.16","O1","P1","O1 P1"
31,1856,61,"html-slider-response",19,110533,"0.0-2.0-0.17","B1","C2","B1 C2"
31,2274,28,"html-slider-response",20,112910,"0.0-2.0-0.18","B1","V1","B1 V1"
31,1913,83,"html-slider-response",21,114925,"0.0-2.0-0.19","W1","X1","W1 X1"
31,1864,98,"html-slider-response",22,116902,"0.0-2.0-0.20","N1","W1","N1 W1"
31,2065,18,"html-slider-response",23,119070,"0.0-2.0-0.21","J1","Q1","J1 Q1"
31,1513,75,"html-slider-response",24,120686,"0.0-2.0-0.22","I1","O1","I1 O1"
31,1506,79,"html-slider-response",25,122294,"0.0-2.0-0.23","R1","W1","R1 W1"
31,2962,16,"html-slider-response",26,125359,"0.0-2.0-0.24","B1","G1","B1 G1"
31,2304,89,"html-slider-response",27,127766,"0.0-2.0-0.25","R1","X1","R1 X1"
31,3729,89,"html-slider-response",28,131599,"0.0-2.0-0.26","V1","X1","V1 X1"
32,1794,59,"html-slider-response",2,51174,"0.0-2.0-0.0","F1","N1","F1 N1"
32,1554,43,"html-slider-response",3,52833,"0.0-2.0-0.1","J1","M1","J1 M1"
32,1124,53,"html-slider-response",4,54060,"0.0-2.0-0.2","K1","U1","K1 U1"
32,1009,61,"html-slider-response",5,55172,"0.0-2.0-0.3","B1","K1","B1 K1"
32,1198,43,"html-slider-response",6,56472,"0.0-2.0-0.4","L1","R1","L1 R1"
32,1217,56,"html-slider-response",7,57794,"0.0-2.0-0.5","K1","Z1","K1 Z1"
32,1060,59,"html-slider-response",8,58959,"0.0-2.0-0.6","J1","T1","J1 T1"
32,901,54,"html-slider-response",9,59963,"0.0-2.0-0.7","O1","V1","O1 V1"
32,1127,42,"html-slider-response",10,61193,"0.0-2.0-0.8","I1","S1","I1 S1"
32,926,61,"html-slider-response",11,62224,"0.0-2.0-0.9","B1","X1","B1 X1"
32,1321,52,"html-slider-response",12,63649,"0.0-2.0-0.10","A2","T1","A2 T1"
32,877,57,"html-slider-response",13,64627,"0.0-2.0-0.11","K1","R1","K1 R1"
32,1235,55,"html-slider-response",14,65965,"0.0-2.0-0.12","J1","U1","J1 U1"
32,1020,44,"html-slider-response",15,67088,"0.0-2.0-0.13","B2","F1","B2 F1"
32,1058,60,"html-slider-response",16,68249,"0.0-2.0-0.14","I1","W1","I1 W1"
32,1489,54,"html-slider-response",17,69844,"0.0-2.0-0.15","Q1","R1","Q1 R1"
32,925,60,"html-slider-response",18,70874,"0.0-2.0-0.16","A2","X1","A2 X1"
32,967,36,"html-slider-response",19,71945,"0.0-2.0-0.17","L1","O1","L1 O1"
32,4077,60,"html-slider-response",20,76126,"0.0-2.0-0.18","M1","Y1","M1 Y1"
32,1591,62,"html-slider-response",21,77821,"0.0-2.0-0.19","H1","V1","H1 V1"
32,1239,40,"html-slider-response",22,79162,"0.0-2.0-0.20","F1","Q1","F1 Q1"
32,1463,61,"html-slider-response",23,80729,"0.0-2.0-0.21","O1","W1","O1 W1"
32,1654,60,"html-slider-response",24,82487,"0.0-2.0-0.22","O1","Z1","O1 Z1"
32,952,60,"html-slider-response",25,83544,"0.0-2.0-0.23","I1","M1","I1 M1"
32,1106,48,"html-slider-response",26,84754,"0.0-2.0-0.24","I1","U1","I1 U1"
32,816,58,"html-slider-response",27,85674,"0.0-2.0-0.25","T1","U1","T1 U1"
32,864,62,"html-slider-response",28,86641,"0.0-2.0-0.26","B2","M1","B2 M1"
33,11515,32,"html-slider-response",2,45887,"0.0-2.0-0.0","B2","J1","B2 J1"
33,4859,11,"html-slider-response",3,50852,"0.0-2.0-0.1","A1","Y1","A1 Y1"
33,5430,39,"html-slider-response",4,56387,"0.0-2.0-0.2","F1","L1","F1 L1"
33,15899,11,"html-slider-response",5,72391,"0.0-2.0-0.3","S1","Y1","S1 Y1"
33,7456,78,"html-slider-response",6,79953,"0.0-2.0-0.4","F1","T1","F1 T1"
33,6287,59,"html-slider-response",7,86347,"0.0-2.0-0.5","B1","I1","B1 I1"
33,4224,32,"html-slider-response",8,90679,"0.0-2.0-0.6","G1","O1","G1 O1"
33,3359,12,"html-slider-response",9,94143,"0.0-2.0-0.7","T1","Z1","T1 Z1"
33,3376,19,"html-slider-response",10,97623,"0.0-2.0-0.8","Q1","V1","Q1 V1"
33,3086,83,"html-slider-response",11,100813,"0.0-2.0-0.9","F1","H1","F1 H1"
33,2893,100,"html-slider-response",12,103811,"0.0-2.0-0.10","C2","G1","C2 G1"
33,4436,87,"html-slider-response",13,108353,"0.0-2.0-0.11","E1","V1","E1 V1"
33,3011,22,"html-slider-response",14,111469,"0.0-2.0-0.12","H1","L1","H1 L1"
33,3884,100,"html-slider-response",15,115457,"0.0-2.0-0.13","E1","F1","E1 F1"
33,3653,73,"html-slider-response",16,119214,"0.0-2.0-0.14","B2","C2","B2 C2"
33,7854,29,"html-slider-response",17,127173,"0.0-2.0-0.15","I1","K1","I1 K1"
33,3508,23,"html-slider-response",18,130785,"0.0-2.0-0.16","H1","K1","H1 K1"
33,14275,67,"html-slider-response",19,145164,"0.0-2.0-0.17","Q1","Y1","Q1 Y1"
33,2844,69,"html-slider-response",20,148112,"0.0-2.0-0.18","A2","B1","A2 B1"
33,3072,31,"html-slider-response",21,151288,"0.0-2.0-0.19","N1","Z1","N1 Z1"
33,3045,61,"html-slider-response",22,154439,"0.0-2.0-0.20","H1","T1","H1 T1"
33,4137,32,"html-slider-response",23,158681,"0.0-2.0-0.21","C2","O1","C2 O1"
33,2958,62,"html-slider-response",24,161744,"0.0-2.0-0.22","C2","Q1","C2 Q1"
33,3737,24,"html-slider-response",25,165584,"0.0-2.0-0.23","G1","V1","G1 V1"
33,2674,64,"html-slider-response",26,168367,"0.0-2.0-0.24","H1","R1","H1 R1"
33,2737,75,"html-slider-response",27,171209,"0.0-2.0-0.25","J1","Y1","J1 Y1"
33,4963,68,"html-slider-response",28,176277,"0.0-2.0-0.26","J1","W1","J1 W1"
34,184526,32,"html-slider-response",2,204079,"0.0-2.0-0.0","H1","S1","H1 S1"
34,889,39,"html-slider-response",3,205070,"0.0-2.0-0.1","K1","O1","K1 O1"
34,746,61,"html-slider-response",4,205919,"0.0-2.0-0.2","C2","K1","C2 K1"
34,738,46,"html-slider-response",5,206759,"0.0-2.0-0.3","B1","M1","B1 M1"
34,1241,36,"html-slider-response",6,208103,"0.0-2.0-0.4","K1","Y1","K1 Y1"
34,65946,39,"html-slider-response",7,274151,"0.0-2.0-0.5","G1","H1","G1 H1"
34,1187,44,"html-slider-response",8,275439,"0.0-2.0-0.6","H1","W1","H1 W1"
34,947,55,"html-slider-response",9,276487,"0.0-2.0-0.7","A1","M1","A1 M1"
34,33410,40,"html-slider-response",10,309999,"0.0-2.0-0.8","B1","R1","B1 R1"
34,850,55,"html-slider-response",11,310951,"0.0-2.0-0.9","U1","W1","U1 W1"
34,1041,40,"html-slider-response",12,312095,"0.0-2.0-0.10","Y1","Z1","Y1 Z1"
34,1282,36,"html-slider-response",13,313479,"0.0-2.0-0.11","G1","W1","G1 W1"
34,1138,30,"html-slider-response",14,314719,"0.0-2.0-0.12","B1","L1","B1 L1"
34,899,38,"html-slider-response",15,315719,"0.0-2.0-0.13","B1","N1","B1 N1"
34,1570,31,"html-slider-response",16,317391,"0.0-2.0-0.14","H1","X1","H1 X1"
34,1107,40,"html-slider-response",17,318599,"0.0-2.0-0.15","C2","X1","C2 X1"
34,3978,44,"html-slider-response",18,322679,"0.0-2.0-0.16","G1","S1","G1 S1"
34,1179,37,"html-slider-response",19,323959,"0.0-2.0-0.17","G1","T1","G1 T1"
34,1065,60,"html-slider-response",20,325127,"0.0-2.0-0.18","F1","I1","F1 I1"
34,801,63,"html-slider-response",21,326031,"0.0-2.0-0.19","J1","P1","J1 P1"
34,778,58,"html-slider-response",22,326911,"0.0-2.0-0.20","K1","M1","K1 M1"
34,842,70,"html-slider-response",23,327855,"0.0-2.0-0.21","M1","T1","M1 T1"
34,2145,60,"html-slider-response",24,330103,"0.0-2.0-0.22","I1","V1","I1 V1"
34,1282,66,"html-slider-response",25,331487,"0.0-2.0-0.23","M1","P1","M1 P1"
34,1481,45,"html-slider-response",26,333071,"0.0-2.0-0.24","O1","Q1","O1 Q1"
34,1602,62,"html-slider-response",27,334775,"0.0-2.0-0.25","Q1","W1","Q1 W1"
34,1777,42,"html-slider-response",28,336654,"0.0-2.0-0.26","A1","O1","A1 O1"
35,6626,17,"html-slider-response",2,63760,"0.0-2.0-0.0","C2","V1","C2 V1"
35,4841,36,"html-slider-response",3,68704,"0.0-2.0-0.1","E1","I1","E1 I1"
35,2907,42,"html-slider-response",4,71713,"0.0-2.0-0.2","Q1","U1","Q1 U1"
35,5161,73,"html-slider-response",5,76975,"0.0-2.0-0.3","N1","V1","N1 V1"
35,3273,56,"html-slider-response",6,80352,"0.0-2.0-0.4","A2","B2","A2 B2"
35,3897,80,"html-slider-response",7,84352,"0.0-2.0-0.5","X1","Y1","X1 Y1"
35,2825,55,"html-slider-response",8,87280,"0.0-2.0-0.6","R1","S1","R1 S1"
35,3507,87,"html-slider-response",9,90889,"0.0-2.0-0.7","P1","X1","P1 X1"
35,2641,56,"html-slider-response",10,93632,"0.0-2.0-0.8","B2","P1","B2 P1"
35,3537,90,"html-slider-response",11,97272,"0.0-2.0-0.9","I1","J1","I1 J1"
35,3002,59,"html-slider-response",12,100377,"0.0-2.0-0.10","E1","N1","E1 N1"
35,8025,59,"html-slider-response",13,108504,"0.0-2.0-0.11","N1","P1","N1 P1"
35,4226,37,"html-slider-response",14,112832,"0.0-2.0-0.12","R1","Y1","R1 Y1"
35,2874,19,"html-slider-response",15,115809,"0.0-2.0-0.13","A1","G1","A1 G1"
35,3576,44,"html-slider-response",16,119488,"0.0-2.0-0.14","A1","U1","A1 U1"
35,3683,93,"html-slider-response",17,123272,"0.0-2.0-0.15","A1","A2","A1 A2"
35,2730,54,"html-slider-response",18,126104,"0.0-2.0-0.16","B2","R1","B2 R1"
35,3128,43,"html-slider-response",19,129336,"0.0-2.0-0.17","H1","N1","H1 N1"
35,4400,61,"html-slider-response",20,133839,"0.0-2.0-0.18","E1","Y1","E1 Y1"
35,3754,52,"html-slider-response",21,137697,"0.0-2.0-0.19","H1","O1","H1 O1"
35,5001,62,"html-slider-response",22,142799,"0.0-2.0-0.20","I1","Q1","I1 Q1"
35,2876,35,"html-slider-response",23,145777,"0.0-2.0-0.21","A2","M1","A2 M1"
35,3155,39,"html-slider-response",24,149033,"0.0-2.0-0.22","M1","R1","M1 R1"
35,3433,54,"html-slider-response",25,152568,"0.0-2.0-0.23","J1","L1","J1 L1"
35,3154,58,"html-slider-response",26,155824,"0.0-2.0-0.24","B1","J1","B1 J1"
35,3041,92,"html-slider-response",27,158969,"0.0-2.0-0.25","P1","U1","P1 U1"
35,2433,40,"html-slider-response",28,161505,"0.0-2.0-0.26","L1","V1","L1 V1"
36,6520,32,"html-slider-response",2,94623,"0.0-2.0-0.0","A2","O1","A2 O1"
36,5906,8,"html-slider-response",3,100634,"0.0-2.0-0.1","M1","U1","M1 U1"
36,5766,30,"html-slider-response",4,106506,"0.0-2.0-0.2","A1","T1","A1 T1"
36,4686,0,"html-slider-response",5,111297,"0.0-2.0-0.3","C2","J1","C2 J1"
36,5210,41,"html-slider-response",6,116611,"0.0-2.0-0.4","H1","M1","H1 M1"
36,6758,66,"html-slider-response",7,123473,"0.0-2.0-0.5","J1","X1","J1 X1"
36,4345,36,"html-slider-response",8,127923,"0.0-2.0-0.6","A1","L1","A1 L1"
36,5496,52,"html-slider-response",9,133522,"0.0-2.0-0.7","P1","V1","P1 V1"
36,6006,46,"html-slider-response",10,139632,"0.0-2.0-0.8","B1","B2","B1 B2"
36,5134,6,"html-slider-response",11,144871,"0.0-2.0-0.9","V1","Y1","V1 Y1"
36,3876,82,"html-slider-response",12,148852,"0.0-2.0-0.10","N1","X1","N1 X1"
36,3853,60,"html-slider-response",13,152810,"0.0-2.0-0.11","O1","S1","O1 S1"
36,4226,72,"html-slider-response",14,157140,"0.0-2.0-0.12","B2","U1","B2 U1"
36,4064,31,"html-slider-response",15,161310,"0.0-2.0-0.13","A1","W1","A1 W1"
36,6629,12,"html-slider-response",16,168042,"0.0-2.0-0.14","A2","E1","A2 E1"
36,10384,45,"html-slider-response",17,178533,"0.0-2.0-0.15","S1","X1","S1 X1"
36,4512,59,"html-slider-response",18,183149,"0.0-2.0-0.16","J1","K1","J1 K1"
36,5570,24,"html-slider-response",19,188824,"0.0-2.0-0.17","A1","F1","A1 F1"
36,4165,61,"html-slider-response",20,193093,"0.0-2.0-0.18","F1","K1","F1 K1"
36,4465,10,"html-slider-response",21,197661,"0.0-2.0-0.19","L1","M1","L1 M1"
36,3828,40,"html-slider-response",22,201592,"0.0-2.0-0.20","K1","S1","K1 S1"
36,4126,0,"html-slider-response",23,205823,"0.0-2.0-0.21","C2","N1","C2 N1"
36,4215,76,"html-slider-response",24,210142,"0.0-2.0-0.22","C2","Y1","C2 Y1"
36,4675,55,"html-slider-response",25,214921,"0.0-2.0-0.23","K1","Q1","K1 Q1"
36,5321,54,"html-slider-response",26,220346,"0.0-2.0-0.24","L1","N1","L1 N1"
36,3654,46,"html-slider-response",27,224105,"0.0-2.0-0.25","K1","W1","K1 W1"
36,6019,27,"html-slider-response",28,230229,"0.0-2.0-0.26","A2","R1","A2 R1"
37,16046,38,"html-slider-response",2,479708,"0.0-2.0-0.0","K1","V1","K1 V1"
37,4754,70,"html-slider-response",3,484570,"0.0-2.0-0.1","J1","O1","J1 O1"
37,3187,67,"html-slider-response",4,487874,"0.0-2.0-0.2","G1","U1","G1 U1"
37,2839,84,"html-slider-response",5,490823,"0.0-2.0-0.3","N1","O1","N1 O1"
37,7450,61,"html-slider-response",6,498449,"0.0-2.0-0.4","H1","J1","H1 J1"
37,4703,45,"html-slider-response",7,503267,"0.0-2.0-0.5","H1","Z1","H1 Z1"
37,3568,80,"html-slider-response",8,506946,"0.0-2.0-0.6","U1","V1","U1 V1"
37,11993,39,"html-slider-response",9,519053,"0.0-2.0-0.7","A2","H1","A2 H1"
37,5685,46,"html-slider-response",10,524872,"0.0-2.0-0.8","H1","U1","H1 U1"
37,6025,40,"html-slider-response",11,531007,"0.0-2.0-0.9","B1","Y1","B1 Y1"
37,7290,62,"html-slider-response",12,538407,"0.0-2.0-0.10","T1","W1","T1 W1"
37,10544,59,"html-slider-response",13,549076,"0.0-2.0-0.11","P1","R1","P1 R1"
37,3948,41,"html-slider-response",14,553163,"0.0-2.0-0.12","C2","Z1","C2 Z1"
37,10791,57,"html-slider-response",15,564062,"0.0-2.0-0.13","K1","X1","K1 X1"
37,20384,34,"html-slider-response",16,584552,"0.0-2.0-0.14","A2","C2","A2 C2"
37,4671,39,"html-slider-response",17,589356,"0.0-2.0-0.15","O1","U1","O1 U1"
37,6833,40,"html-slider-response",18,596302,"0.0-2.0-0.16","B2","Z1","B2 Z1"
37,20626,42,"html-slider-response",19,617039,"0.0-2.0-0.17","T1","V1","T1 V1"
37,4302,75,"html-slider-response",20,621465,"0.0-2.0-0.18","U1","Z1","U1 Z1"
37,3921,81,"html-slider-response",21,625514,"0.0-2.0-0.19","E1","O1","E1 O1"
37,5964,62,"html-slider-response",22,631595,"0.0-2.0-0.20","L1","W1","L1 W1"
37,3560,64,"html-slider-response",23,635259,"0.0-2.0-0.21","A1","Z1","A1 Z1"
37,4388,82,"html-slider-response",24,639775,"0.0-2.0-0.22","F1","X1","F1 X1"
37,4175,69,"html-slider-response",25,644054,"0.0-2.0-0.23","X1","Z1","X1 Z1"
37,3035,77,"html-slider-response",26,647199,"0.0-2.0-0.24","E1","R1","E1 R1"
37,6053,62,"html-slider-response",27,653397,"0.0-2.0-0.25","A2","L1","A2 L1"
37,3274,74,"html-slider-response",28,656781,"0.0-2.0-0.26","F1","S1","F1 S1"
38,4301,59,"html-slider-response",2,17280,"0.0-2.0-0.0","Q1","T1","Q1 T1"
38,3042,40,"html-slider-response",3,20441,"0.0-2.0-0.1","L1","S1","L1 S1"
38,3153,73,"html-slider-response",4,23713,"0.0-2.0-0.2","N1","S1","N1 S1"
38,2022,98,"html-slider-response",5,25840,"0.0-2.0-0.3","B1","S1","B1 S1"
38,2332,97,"html-slider-response",6,28281,"0.0-2.0-0.4","F1","Z1","F1 Z1"
38,2340,1,"html-slider-response",7,30729,"0.0-2.0-0.5","B2","G1","B2 G1"
38,2256,10,"html-slider-response",8,33105,"0.0-2.0-0.6","F1","P1","F1 P1"
38,2721,2,"html-slider-response",9,35929,"0.0-2.0-0.7","T1","Y1","T1 Y1"
38,2582,71,"html-slider-response",10,38633,"0.0-2.0-0.8","L1","Z1","L1 Z1"
38,2027,84,"html-slider-response",11,40777,"0.0-2.0-0.9","L1","X1","L1 X1"
38,2143,6,"html-slider-response",12,43032,"0.0-2.0-0.10","F1","J1","F1 J1"
38,3627,28,"html-slider-response",13,46777,"0.0-2.0-0.11","H1","I1","H1 I1"
38,2897,12,"html-slider-response",14,49776,"0.0-2.0-0.12","R1","Z1","R1 Z1"
38,2226,22,"html-slider-response",15,52104,"0.0-2.0-0.13","C2","P1","C2 P1"
38,2987,8,"html-slider-response",16,55193,"0.0-2.0-0.14","E1","H1","E1 H1"
38,2396,87,"html-slider-response",17,57704,"0.0-2.0-0.15","I1","Z1","I1 Z1"
38,2832,5,"html-slider-response",18,60641,"0.0-2.0-0.16","G1","K1","G1 K1"
38,2684,8,"html-slider-response",19,63433,"0.0-2.0-0.17","E1","J1","E1 J1"
38,2715,7,"html-slider-response",20,66265,"0.0-2.0-0.18","P1","Z1","P1 Z1"
38,2175,13,"html-slider-response",21,68553,"0.0-2.0-0.19","A1","J1","A1 J1"
38,1461,18,"html-slider-response",22,70128,"0.0-2.0-0.20","B2","T1","B2 T1"
38,2479,95,"html-slider-response",23,72729,"0.0-2.0-0.21","H1","Q1","H1 Q1"
38,3031,5,"html-slider-response",24,75880,"0.0-2.0-0.22","N1","Y1","N1 Y1"
38,2716,18,"html-slider-response",25,78705,"0.0-2.0-0.23","A1","X1","A1 X1"
38,2857,70,"html-slider-response",26,81664,"0.0-2.0-0.24","F1","O1","F1 O1"
38,2672,1,"html-slider-response",27,84440,"0.0-2.0-0.25","E1","L1","E1 L1"
38,2154,95,"html-slider-response",28,86712,"0.0-2.0-0.26","B2","W1","B2 W1"
39,10756,76,"html-slider-response",2,37969,"0.0-2.0-0.0","A1","K1","A1 K1"
39,4176,31,"html-slider-response",3,42261,"0.0-2.0-0.1","I1","N1","I1 N1"
39,4789,74,"html-slider-response",4,47161,"0.0-2.0-0.2","I1","Y1","I1 Y1"
39,2325,100,"html-slider-response",5,49603,"0.0-2.0-0.3","O1","R1","O1 R1"
39,2747,81,"html-slider-response",6,52461,"0.0-2.0-0.4","R1","T1","R1 T1"
39,3415,27,"html-slider-response",7,55983,"0.0-2.0-0.5","A2","K1","A2 K1"
39,3370,0,"html-slider-response",8,59459,"0.0-2.0-0.6","E1","M1","E1 M1"
39,2581,77,"html-slider-response",9,62145,"0.0-2.0-0.7","B2","V1","B2 V1"
39,2689,53,"html-slider-response",10,64939,"0.0-2.0-0.8","I1","P1","I1 P1"
39,3725,0,"html-slider-response",11,68776,"0.0-2.0-0.9","J1","V1","J1 V1"
39,3995,74,"html-slider-response",12,72886,"0.0-2.0-0.10","G1","M1","G1 M1"
39,5281,77,"html-slider-response",13,78279,"0.0-2.0-0.11","F1","R1","F1 R1"
39,3179,0,"html-slider-response",14,81567,"0.0-2.0-0.12","A2","Q1","A2 Q1"
39,2532,95,"html-slider-response",15,84205,"0.0-2.0-0.13","A1","R1","A1 R1"
39,2658,100,"html-slider-response",16,86969,"0.0-2.0-0.14","N1","U1","N1 U1"
39,2432,32,"html-slider-response",17,89513,"0.0-2.0-0.15","B2","E1","B2 E1"
39,2290,0,"html-slider-response",18,91908,"0.0-2.0-0.16","C2","R1","C2 R1"
39,2472,0,"html-slider-response",19,94491,"0.0-2.0-0.17","C2","L1","C2 L1"
39,2310,0,"html-slider-response",20,96917,"0.0-2.0-0.18","G1","Y1","G1 Y1"
39,3160,87,"html-slider-response",21,100182,"0.0-2.0-0.19","Q1","Z1","Q1 Z1"
39,2047,86,"html-slider-response",22,102342,"0.0-2.0-0.20","B2","S1","B2 S1"
39,2429,0,"html-slider-response",23,104879,"0.0-2.0-0.21","M1","W1","M1 W1"
39,2111,4,"html-slider-response",24,107093,"0.0-2.0-0.22","K1","P1","K1 P1"
39,2792,0,"html-slider-response",25,109997,"0.0-2.0-0.23","C2","E1","C2 E1"
39,2206,100,"html-slider-response",26,112316,"0.0-2.0-0.24","A2","F1","A2 F1"
39,2085,100,"html-slider-response",27,114515,"0.0-2.0-0.25","L1","U1","L1 U1"
39,2354,86,"html-slider-response",28,116988,"0.0-2.0-0.26","U1","X1","U1 X1"
40,2442,0,"html-slider-response",2,11161,"0.0-2.0-0.0","M1","O1","M1 O1"
40,2330,15,"html-slider-response",3,13593,"0.0-2.0-0.1","O1","T1","O1 T1"
40,1983,4,"html-slider-response",4,15678,"0.0-2.0-0.2","A1","V1","A1 V1"
40,3756,8,"html-slider-response",5,19536,"0.0-2.0-0.3","R1","U1","R1 U1"
40,2948,8,"html-slider-response",6,22586,"0.0-2.0-0.4","I1","R1","I1 R1"
40,2354,16,"html-slider-response",7,25042,"0.0-2.0-0.5","F1","Y1","F1 Y1"
40,2146,7,"html-slider-response",8,27290,"0.0-2.0-0.6","E1","W1","E1 W1"
40,1877,5,"html-slider-response",9,29268,"0.0-2.0-0.7","O1","Y1","O1 Y1"
40,1885,5,"html-slider-response",10,31254,"0.0-2.0-0.8","E1","T1","E1 T1"
40,1901,4,"html-slider-response",11,33256,"0.0-2.0-0.9","G1","X1","G1 X1"
40,2202,7,"html-slider-response",12,35560,"0.0-2.0-0.10","A1","C2","A1 C2"
40,1944,4,"html-slider-response",13,37606,"0.0-2.0-0.11","B1","P1","B1 P1"
40,1854,22,"html-slider-response",14,39562,"0.0-2.0-0.12","S1","W1","S1 W1"
40,6136,48,"html-slider-response",15,45800,"0.0-2.0-0.13","O1","X1","O1 X1"
40,1546,0,"html-slider-response",16,47448,"0.0-2.0-0.14","B1","U1","B1 U1"
40,2015,26,"html-slider-response",17,49564,"0.0-2.0-0.15","E1","U1","E1 U1"
40,2295,49,"html-slider-response",18,51960,"0.0-2.0-0.16","A1","P1","A1 P1"
40,1714,3,"html-slider-response",19,53776,"0.0-2.0-0.17","A2","G1","A2 G1"
40,1802,29,"html-slider-response",20,55680,"0.0-2.0-0.18","A2","W1","A2 W1"
40,2200,38,"html-slider-response",21,57982,"0.0-2.0-0.19","H1","P1","H1 P1"
40,1922,8,"html-slider-response",22,60006,"0.0-2.0-0.20","C2","I1","C2 I1"
40,5952,61,"html-slider-response",23,66060,"0.0-2.0-0.21","A2","S1","A2 S1"
40,2206,11,"html-slider-response",24,68368,"0.0-2.0-0.22","P1","T1","P1 T1"
40,1825,31,"html-slider-response",25,70294,"0.0-2.0-0.23","A2","V1","A2 V1"
40,1685,24,"html-slider-response",26,72080,"0.0-2.0-0.24","G1","N1","G1 N1"
40,3086,73,"html-slider-response",27,75268,"0.0-2.0-0.25","I1","X1","I1 X1"
40,1451,11,"html-slider-response",28,76822,"0.0-2.0-0.26","W1","Y1","W1 Y1"
41,10523,83,"html-slider-response",2,52867,"0.0-2.0-0.0","F1","W1","F1 W1"
41,6727,71,"html-slider-response",3,59698,"0.0-2.0-0.1","V1","W1","V1 W1"
41,7033,37,"html-slider-response",4,66835,"0.0-2.0-0.2","A1","B2","A1 B2"
41,7369,25,"html-slider-response",5,74307,"0.0-2.0-0.3","E1","G1","E1 G1"
41,10689,87,"html-slider-response",6,85099,"0.0-2.0-0.4","B2","X1","B2 X1"
41,9720,67,"html-slider-response",7,94923,"0.0-2.0-0.5","P1","S1","P1 S1"
41,7193,65,"html-slider-response",8,102219,"0.0-2.0-0.6","P1","W1","P1 W1"
41,5281,68,"html-slider-response",9,107603,"0.0-2.0-0.7","Q1","X1","Q1 X1"
41,7258,80,"html-slider-response",10,114963,"0.0-2.0-0.8","J1","Z1","J1 Z1"
41,6865,33,"html-slider-response",11,121931,"0.0-2.0-0.9","B1","O1","B1 O1"
41,8521,82,"html-slider-response",12,130555,"0.0-2.0-0.10","I1","T1","I1 T1"
41,5545,90,"html-slider-response",13,136204,"0.0-2.0-0.11","W1","Z1","W1 Z1"
41,5513,85,"html-slider-response",14,141820,"0.0-2.0-0.12","T1","X1","T1 X1"
41,9049,67,"html-slider-response",15,150972,"0.0-2.0-0.13","J1","S1","J1 S1"
41,9305,16,"html-slider-response",16,160380,"0.0-2.0-0.14","B1","E1","B1 E1"
41,5424,57,"html-slider-response",17,165908,"0.0-2.0-0.15","B2","N1","B2 N1"
41,8090,86,"html-slider-response",18,174100,"0.0-2.0-0.16","S1","U1","S1 U1"
41,6938,39,"html-slider-response",19,181140,"0.0-2.0-0.17","M1","X1","M1 X1"
41,5370,9,"html-slider-response",20,186612,"0.0-2.0-0.18","C2","F1","C2 F1"
41,7528,87,"html-slider-response",21,194244,"0.0-2.0-0.19","F1","U1","F1 U1"
41,5534,93,"html-slider-response",22,199884,"0.0-2.0-0.20","H1","Y1","H1 Y1"
41,6105,82,"html-slider-response",23,206093,"0.0-2.0-0.21","M1","Z1","M1 Z1"
41,6193,30,"html-slider-response",24,212389,"0.0-2.0-0.22","B1","W1","B1 W1"
41,5317,31,"html-slider-response",25,217813,"0.0-2.0-0.23","M1","Q1","M1 Q1"
41,6281,65,"html-slider-response",26,224197,"0.0-2.0-0.24","E1","Q1","E1 Q1"
41,4615,84,"html-slider-response",27,228917,"0.0-2.0-0.25","I1","L1","I1 L1"
41,4768,66,"html-slider-response",28,233789,"0.0-2.0-0.26","L1","Q1","L1 Q1"
42,3104,64,"html-slider-response",2,13766,"0.0-2.0-0.0","K1","T1","K1 T1"
42,4707,11,"html-slider-response",3,18576,"0.0-2.0-0.1","B1","H1","B1 H1"
42,2549,28,"html-slider-response",4,21228,"0.0-2.0-0.2","N1","Q1","N1 Q1"
42,3044,23,"html-slider-response",5,24376,"0.0-2.0-0.3","P1","Y1","P1 Y1"
42,2308,20,"html-slider-response",6,26786,"0.0-2.0-0.4","A2","N1","A2 N1"
42,2205,65,"html-slider-response",7,29094,"0.0-2.0-0.5","S1","Z1","S1 Z1"
42,1827,60,"html-slider-response",8,31025,"0.0-2.0-0.6","C2","U1","C2 U1"
42,1781,54,"html-slider-response",9,32909,"0.0-2.0-0.7","L1","Y1","L1 Y1"
42,1829,35,"html-slider-response",10,34841,"0.0-2.0-0.8","A2","Z1","A2 Z1"
42,2651,59,"html-slider-response",11,37595,"0.0-2.0-0.9","A1","Q1","A1 Q1"
42,2440,83,"html-slider-response",12,40139,"0.0-2.0-0.10","K1","L1","K1 L1"
42,2007,23,"html-slider-response",13,42249,"0.0-2.0-0.11","E1","Z1","E1 Z1"
42,2127,15,"html-slider-response",14,44479,"0.0-2.0-0.12","A2","I1","A2 I1"
42,2189,91,"html-slider-response",15,46771,"0.0-2.0-0.13","L1","T1","L1 T1"
42,2401,73,"html-slider-response",16,49275,"0.0-2.0-0.14","G1","L1","G1 L1"
42,2215,100,"html-slider-response",17,51597,"0.0-2.0-0.15","J1","R1","J1 R1"
42,1883,30,"html-slider-response",18,53583,"0.0-2.0-0.16","B2","Q1","B2 Q1"
42,1884,9,"html-slider-response",19,55569,"0.0-2.0-0.17","A1","H1","A1 H1"
42,2142,28,"html-slider-response",20,57813,"0.0-2.0-0.18","E1","P1","E1 P1"
42,1940,43,"html-slider-response",21,59856,"0.0-2.0-0.19","G1","J1","G1 J1"
42,1544,34,"html-slider-response",22,61503,"0.0-2.0-0.20","G1","Q1","G1 Q1"
42,1890,61,"html-slider-response",23,63496,"0.0-2.0-0.21","C2","T1","C2 T1"
42,1907,33,"html-slider-response",24,65505,"0.0-2.0-0.22","E1","X1","E1 X1"
42,2283,14,"html-slider-response",25,67892,"0.0-2.0-0.23","F1","M1","F1 M1"
42,2009,22,"html-slider-response",26,70004,"0.0-2.0-0.24","C2","W1","C2 W1"
42,1988,60,"html-slider-response",27,72098,"0.0-2.0-0.25","B2","H1","B2 H1"
42,1858,21,"html-slider-response",28,74060,"0.0-2.0-0.26","L1","P1","L1 P1"
43,5173,56,"html-slider-response",2,18311,"0.0-2.0-0.0","G1","P1","G1 P1"
43,3400,40,"html-slider-response",3,21813,"0.0-2.0-0.1","E1","K1","E1 K1"
43,2937,56,"html-slider-response",4,24851,"0.0-2.0-0.2","A1","I1","A1 I1"
43,3575,33,"html-slider-response",5,28529,"0.0-2.0-0.3","F1","G1","F1 G1"
43,2166,69,"html-slider-response",6,30796,"0.0-2.0-0.4","R1","V1","R1 V1"
43,2010,87,"html-slider-response",7,32907,"0.0-2.0-0.5","N1","R1","N1 R1"
43,2038,57,"html-slider-response",8,35047,"0.0-2.0-0.6","E1","S1","E1 S1"
43,1877,61,"html-slider-response",9,37025,"0.0-2.0-0.7","A2","P1","A2 P1"
43,2307,76,"html-slider-response",10,39434,"0.0-2.0-0.8","B1","Z1","B1 Z1"
43,2152,61,"html-slider-response",11,41687,"0.0-2.0-0.9","B1","F1","B1 F1"
43,1921,37,"html-slider-response",12,43709,"0.0-2.0-0.10","G1","R1","G1 R1"
43,2252,88,"html-slider-response",13,46062,"0.0-2.0-0.11","A1","S1","A1 S1"
43,1958,35,"html-slider-response",14,48121,"0.0-2.0-0.12","K1","N1","K1 N1"
43,2084,83,"html-slider-response",15,50308,"0.0-2.0-0.13","A1","B1","A1 B1"
43,3428,81,"html-slider-response",16,53837,"0.0-2.0-0.14","C2","H1","C2 H1"
43,3254,43,"html-slider-response",17,57193,"0.0-2.0-0.15","B2","I1","B2 I1"
43,1895,83,"html-slider-response",18,59190,"0.0-2.0-0.16","A2","J1","A2 J1"
43,2259,69,"html-slider-response",19,61551,"0.0-2.0-0.17","Q1","S1","Q1 S1"
43,1941,90,"html-slider-response",20,63593,"0.0-2.0-0.18","B2","L1","B2 L1"
43,2194,60,"html-slider-response",21,65888,"0.0-2.0-0.19","G1","I1","G1 I1"
43,2908,90,"html-slider-response",22,68897,"0.0-2.0-0.20","C2","M1","C2 M1"
43,2479,56,"html-slider-response",23,71477,"0.0-2.0-0.21","P1","Q1","P1 Q1"
43,2039,77,"html-slider-response",24,73617,"0.0-2.0-0.22","M1","S1","M1 S1"
43,2998,64,"html-slider-response",25,76716,"0.0-2.0-0.23","A1","N1","A1 N1"
43,3074,41,"html-slider-response",26,79892,"0.0-2.0-0.24","A2","Y1","A2 Y1"
43,2219,41,"html-slider-response",27,82213,"0.0-2.0-0.25","M1","V1","M1 V1"
43,2000,75,"html-slider-response",28,84316,"0.0-2.0-0.26","A2","U1","A2 U1"
44,3671,71,"html-slider-response",2,12578,"0.0-2.0-0.0","V1","Z1","V1 Z1"
44,7453,56,"html-slider-response",3,20133,"0.0-2.0-0.1","B2","O1","B2 O1"
44,1441,8,"html-slider-response",4,21675,"0.0-2.0-0.2","S1","T1","S1 T1"
44,1667,34,"html-slider-response",5,23443,"0.0-2.0-0.3","V1","X1","V1 X1"
44,1891,63,"html-slider-response",6,25436,"0.0-2.0-0.4","B1","T1","B1 T1"
44,1763,31,"html-slider-response",7,27302,"0.0-2.0-0.5","J1","N1","J1 N1"
44,1280,21,"html-slider-response",8,28683,"0.0-2.0-0.6","N1","W1","N1 W1"
44,1860,21,"html-slider-response",9,30644,"0.0-2.0-0.7","M1","N1","M1 N1"
44,2406,4,"html-slider-response",10,33152,"0.0-2.0-0.8","B2","Y1","B2 Y1"
44,1185,3,"html-slider-response",11,34439,"0.0-2.0-0.9","A1","E1","A1 E1"
44,1715,7,"html-slider-response",12,36255,"0.0-2.0-0.10","B1","G1","B1 G1"
44,960,14,"html-slider-response",13,37317,"0.0-2.0-0.11","U1","Y1","U1 Y1"
44,751,22,"html-slider-response",14,38168,"0.0-2.0-0.12","B1","Q1","B1 Q1"
44,3242,71,"html-slider-response",15,41512,"0.0-2.0-0.13","B1","C2","B1 C2"
44,2519,68,"html-slider-response",16,44131,"0.0-2.0-0.14","O1","P1","O1 P1"
44,1827,37,"html-slider-response",17,46060,"0.0-2.0-0.15","B2","K1","B2 K1"
44,1634,22,"html-slider-response",18,47797,"0.0-2.0-0.16","G1","Z1","G1 Z1"
44,1265,29,"html-slider-response",19,49163,"0.0-2.0-0.17","N1","T1","N1 T1"
44,894,13,"html-slider-response",20,50160,"0.0-2.0-0.18","J1","Q1","J1 Q1"
44,1088,8,"html-slider-response",21,51349,"0.0-2.0-0.19","R1","W1","R1 W1"
44,927,17,"html-slider-response",22,52379,"0.0-2.0-0.20","F1","V1","F1 V1"
44,1104,9,"html-slider-response",23,53584,"0.0-2.0-0.21","C2","S1","C2 S1"
44,1410,15,"html-slider-response",24,55095,"0.0-2.0-0.22","B1","V1","B1 V1"
44,3965,15,"html-slider-response",25,59161,"0.0-2.0-0.23","I1","O1","I1 O1"
44,1490,31,"html-slider-response",26,60753,"0.0-2.0-0.24","R1","X1","R1 X1"
44,862,15,"html-slider-response",27,61717,"0.0-2.0-0.25","W1","X1","W1 X1"
44,686,5,"html-slider-response",28,62505,"0.0-2.0-0.26","S1","V1","S1 V1"
45,4525,39,"html-slider-response",2,18666,"0.0-2.0-0.0","J1","M1","J1 M1"
45,2534,8,"html-slider-response",3,21306,"0.0-2.0-0.1","H1","V1","H1 V1"
45,3027,23,"html-slider-response",4,24435,"0.0-2.0-0.2","K1","Z1","K1 Z1"
45,2490,54,"html-slider-response",5,27026,"0.0-2.0-0.3","L1","O1","L1 O1"
45,2171,17,"html-slider-response",6,29299,"0.0-2.0-0.4","B2","F1","B2 F1"
45,4587,31,"html-slider-response",7,34000,"0.0-2.0-0.5","F1","N1","F1 N1"
45,3748,19,"html-slider-response",8,37850,"0.0-2.0-0.6","Q1","R1","Q1 R1"
45,3127,56,"html-slider-response",9,41079,"0.0-2.0-0.7","I1","M1","I1 M1"
45,2497,38,"html-slider-response",10,43677,"0.0-2.0-0.8","M1","Y1","M1 Y1"
45,3369,29,"html-slider-response",11,47147,"0.0-2.0-0.9","B1","K1","B1 K1"
45,2601,69,"html-slider-response",12,49849,"0.0-2.0-0.10","J1","T1","J1 T1"
45,2356,66,"html-slider-response",13,52307,"0.0-2.0-0.11","I1","W1","I1 W1"
45,2402,67,"html-slider-response",14,54811,"0.0-2.0-0.12","O1","Z1","O1 Z1"
45,5405,63,"html-slider-response",15,60318,"0.0-2.0-0.13","O1","W1","O1 W1"
45,4083,37,"html-slider-response",16,64502,"0.0-2.0-0.14","I1","U1","I1 U1"
45,2902,39,"html-slider-response",17,67505,"0.0-2.0-0.15","B2","M1","B2 M1"
45,2947,21,"html-slider-response",18,70553,"0.0-2.0-0.16","L1","R1","L1 R1"
45,3988,39,"html-slider-response",19,74643,"0.0-2.0-0.17","K1","U1","K1 U1"
45,3372,61,"html-slider-response",20,78117,"0.0-2.0-0.18","J1","U1","J1 U1"
45,2455,56,"html-slider-response",21,80673,"0.0-2.0-0.19","T1","U1","T1 U1"
45,2414,35,"html-slider-response",22,83190,"0.0-2.0-0.20","I1","S1","I1 S1"
45,2175,24,"html-slider-response",23,85467,"0.0-2.0-0.21","F1","Q1","F1 Q1"
45,3237,49,"html-slider-response",24,88806,"0.0-2.0-0.22","K1","R1","K1 R1"
45,2056,16,"html-slider-response",25,90964,"0.0-2.0-0.23","B1","X1","B1 X1"
45,2999,64,"html-slider-response",26,94064,"0.0-2.0-0.24","O1","V1","O1 V1"
45,25269,42,"html-slider-response",27,119434,"0.0-2.0-0.25","A2","X1","A2 X1"
45,6155,39,"html-slider-response",28,125691,"0.0-2.0-0.26","A2","T1","A2 T1"
46,10504,13,"html-slider-response",2,31316,"0.0-2.0-0.0","G1","V1","G1 V1"
46,6002,45,"html-slider-response",3,37423,"0.0-2.0-0.1","B2","J1","B2 J1"
46,9347,39,"html-slider-response",4,46879,"0.0-2.0-0.2","F1","L1","F1 L1"
46,8546,54,"html-slider-response",5,55529,"0.0-2.0-0.3","F1","T1","F1 T1"
46,4295,61,"html-slider-response",6,59927,"0.0-2.0-0.4","C2","G1","C2 G1"
46,4198,26,"html-slider-response",7,64230,"0.0-2.0-0.5","H1","L1","H1 L1"
46,4403,66,"html-slider-response",8,68737,"0.0-2.0-0.6","I1","K1","I1 K1"
46,4914,40,"html-slider-response",9,73755,"0.0-2.0-0.7","H1","R1","H1 R1"
46,5391,29,"html-slider-response",10,79251,"0.0-2.0-0.8","C2","O1","C2 O1"
46,25699,17,"html-slider-response",11,105053,"0.0-2.0-0.9","Q1","Y1","Q1 Y1"
46,4537,10,"html-slider-response",12,109694,"0.0-2.0-0.10","A1","Y1","A1 Y1"
46,8291,30,"html-slider-response",13,118088,"0.0-2.0-0.11","E1","V1","E1 V1"
46,5516,20,"html-slider-response",14,123708,"0.0-2.0-0.12","B2","C2","B2 C2"
46,4899,16,"html-slider-response",15,128710,"0.0-2.0-0.13","J1","Y1","J1 Y1"
46,5835,11,"html-slider-response",16,134648,"0.0-2.0-0.14","G1","O1","G1 O1"
46,3542,23,"html-slider-response",17,138294,"0.0-2.0-0.15","S1","Y1","S1 Y1"
46,4379,62,"html-slider-response",18,142776,"0.0-2.0-0.16","T1","Z1","T1 Z1"
46,6136,67,"html-slider-response",19,149018,"0.0-2.0-0.17","E1","F1","E1 F1"
46,5461,60,"html-slider-response",20,154584,"0.0-2.0-0.18","H1","T1","H1 T1"
46,9131,63,"html-slider-response",21,163820,"0.0-2.0-0.19","N1","Z1","N1 Z1"
46,8137,35,"html-slider-response",22,172062,"0.0-2.0-0.20","C2","Q1","C2 Q1"
46,4261,81,"html-slider-response",23,176428,"0.0-2.0-0.21","J1","W1","J1 W1"
46,6085,66,"html-slider-response",24,182615,"0.0-2.0-0.22","A2","B1","A2 B1"
46,4702,31,"html-slider-response",25,187419,"0.0-2.0-0.23","F1","H1","F1 H1"
46,6902,29,"html-slider-response",26,194425,"0.0-2.0-0.24","Q1","V1","Q1 V1"
46,3062,76,"html-slider-response",27,197591,"0.0-2.0-0.25","H1","K1","H1 K1"
46,8035,45,"html-slider-response",28,205729,"0.0-2.0-0.26","B1","I1","B1 I1"
47,6113,41,"html-slider-response",2,26793,"0.0-2.0-0.0","O1","Q1","O1 Q1"
47,4496,15,"html-slider-response",3,31396,"0.0-2.0-0.1","M1","T1","M1 T1"
47,4338,54,"html-slider-response",4,35844,"0.0-2.0-0.2","K1","O1","K1 O1"
47,4585,15,"html-slider-response",5,40533,"0.0-2.0-0.3","H1","S1","H1 S1"
47,6817,73,"html-slider-response",6,47456,"0.0-2.0-0.4","A1","O1","A1 O1"
47,7383,31,"html-slider-response",7,54947,"0.0-2.0-0.5","B1","M1","B1 M1"
47,4008,39,"html-slider-response",8,59061,"0.0-2.0-0.6","B1","N1","B1 N1"
47,4211,53,"html-slider-response",9,63376,"0.0-2.0-0.7","Y1","Z1","Y1 Z1"
47,6136,12,"html-slider-response",10,69617,"0.0-2.0-0.8","C2","X1","C2 X1"
47,3854,0,"html-slider-response",11,73576,"0.0-2.0-0.9","K1","M1","K1 M1"
47,4079,54,"html-slider-response",12,77760,"0.0-2.0-0.10","G1","S1","G1 S1"
47,7705,4,"html-slider-response",13,85569,"0.0-2.0-0.11","M1","P1","M1 P1"
47,2923,53,"html-slider-response",14,88597,"0.0-2.0-0.12","C2","K1","C2 K1"
47,5105,9,"html-slider-response",15,93806,"0.0-2.0-0.13","H1","X1","H1 X1"
47,3590,38,"html-slider-response",16,97499,"0.0-2.0-0.14","G1","T1","G1 T1"
47,6098,6,"html-slider-response",17,103703,"0.0-2.0-0.15","B1","R1","B1 R1"
47,3692,57,"html-slider-response",18,107501,"0.0-2.0-0.16","J1","P1","J1 P1"
47,3330,60,"html-slider-response",19,110938,"0.0-2.0-0.17","H1","W1","H1 W1"
47,3783,60,"html-slider-response",20,114828,"0.0-2.0-0.18","I1","V1","I1 V1"
47,4674,43,"html-slider-response",21,119608,"0.0-2.0-0.19","B1","L1","B1 L1"
47,4344,84,"html-slider-response",22,124058,"0.0-2.0-0.20","U1","W1","U1 W1"
47,4358,38,"html-slider-response",23,128521,"0.0-2.0-0.21","F1","I1","F1 I1"
47,4172,66,"html-slider-response",24,132798,"0.0-2.0-0.22","Q1","W1","Q1 W1"
47,4653,36,"html-slider-response",25,137555,"0.0-2.0-0.23","K1","Y1","K1 Y1"
47,3908,47,"html-slider-response",26,141569,"0.0-2.0-0.24","A1","M1","A1 M1"
47,4322,55,"html-slider-response",27,145996,"0.0-2.0-0.25","G1","W1","G1 W1"
47,3463,0,"html-slider-response",28,149564,"0.0-2.0-0.26","G1","H1","G1 H1"
48,5166,53,"html-slider-response",2,18012,"0.0-2.0-0.0","N1","P1","N1 P1"
48,3717,42,"html-slider-response",3,21835,"0.0-2.0-0.1","L1","V1","L1 V1"
48,2698,70,"html-slider-response",4,24635,"0.0-2.0-0.2","I1","Q1","I1 Q1"
48,2660,79,"html-slider-response",5,27402,"0.0-2.0-0.3","A1","A2","A1 A2"
48,2765,40,"html-slider-response",6,30270,"0.0-2.0-0.4","H1","N1","H1 N1"
48,2487,31,"html-slider-response",7,32862,"0.0-2.0-0.5","X1","Y1","X1 Y1"
48,2249,41,"html-slider-response",8,35214,"0.0-2.0-0.6","R1","Y1","R1 Y1"
48,2387,65,"html-slider-response",9,37703,"0.0-2.0-0.7","B2","P1","B2 P1"
48,2693,14,"html-slider-response",10,40501,"0.0-2.0-0.8","H1","O1","H1 O1"
48,2022,27,"html-slider-response",11,42625,"0.0-2.0-0.9","A2","B2","A2 B2"
48,3015,57,"html-slider-response",12,45746,"0.0-2.0-0.10","A1","U1","A1 U1"
48,2558,68,"html-slider-response",13,48408,"0.0-2.0-0.11","E1","N1","E1 N1"
48,3088,55,"html-slider-response",14,51601,"0.0-2.0-0.12","B1","J1","B1 J1"
48,2394,66,"html-slider-response",15,54101,"0.0-2.0-0.13","N1","V1","N1 V1"
48,4132,65,"html-slider-response",16,58336,"0.0-2.0-0.14","J1","L1","J1 L1"
48,2899,42,"html-slider-response",17,61340,"0.0-2.0-0.15","B2","R1","B2 R1"
48,3056,8,"html-slider-response",18,64500,"0.0-2.0-0.16","A1","G1","A1 G1"
48,4347,29,"html-slider-response",19,68953,"0.0-2.0-0.17","Q1","U1","Q1 U1"
48,2449,28,"html-slider-response",20,71508,"0.0-2.0-0.18","M1","R1","M1 R1"
48,2995,56,"html-slider-response",21,74607,"0.0-2.0-0.19","R1","S1","R1 S1"
48,2799,57,"html-slider-response",22,77511,"0.0-2.0-0.20","A2","M1","A2 M1"
48,3240,61,"html-slider-response",23,80856,"0.0-2.0-0.21","I1","J1","I1 J1"
48,3064,4,"html-slider-response",24,84023,"0.0-2.0-0.22","C2","V1","C2 V1"
48,2501,56,"html-slider-response",25,86628,"0.0-2.0-0.23","P1","X1","P1 X1"
48,2591,74,"html-slider-response",26,89322,"0.0-2.0-0.24","P1","U1","P1 U1"
48,2734,42,"html-slider-response",27,92162,"0.0-2.0-0.25","E1","Y1","E1 Y1"
48,2862,47,"html-slider-response",28,95126,"0.0-2.0-0.26","E1","I1","E1 I1"
49,11138,25,"html-slider-response",2,50801,"0.0-2.0-0.0","K1","Q1","K1 Q1"
49,5670,65,"html-slider-response",3,56578,"0.0-2.0-0.1","V1","Y1","V1 Y1"
49,4012,75,"html-slider-response",4,60697,"0.0-2.0-0.2","J1","K1","J1 K1"
49,3199,63,"html-slider-response",5,63999,"0.0-2.0-0.3","A1","L1","A1 L1"
49,3426,57,"html-slider-response",6,67532,"0.0-2.0-0.4","B1","B2","B1 B2"
49,3678,57,"html-slider-response",7,71316,"0.0-2.0-0.5","F1","K1","F1 K1"
49,5789,71,"html-slider-response",8,77212,"0.0-2.0-0.6","S1","X1","S1 X1"
49,3566,65,"html-slider-response",9,80886,"0.0-2.0-0.7","C2","Y1","C2 Y1"
49,9153,37,"html-slider-response",10,90142,"0.0-2.0-0.8","A2","E1","A2 E1"
49,6560,55,"html-slider-response",11,96808,"0.0-2.0-0.9","M1","U1","M1 U1"
49,6911,77,"html-slider-response",12,103824,"0.0-2.0-0.10","N1","X1","N1 X1"
49,4486,33,"html-slider-response",13,108415,"0.0-2.0-0.11","A2","R1","A2 R1"
49,5191,47,"html-slider-response",14,113712,"0.0-2.0-0.12","C2","N1","C2 N1"
49,4674,61,"html-slider-response",15,118492,"0.0-2.0-0.13","P1","V1","P1 V1"
49,3241,55,"html-slider-response",16,121839,"0.0-2.0-0.14","A1","F1","A1 F1"
49,3009,46,"html-slider-response",17,124953,"0.0-2.0-0.15","A1","T1","A1 T1"
49,5128,53,"html-slider-response",18,130187,"0.0-2.0-0.16","A1","W1","A1 W1"
49,10046,75,"html-slider-response",19,140338,"0.0-2.0-0.17","H1","M1","H1 M1"
49,5490,72,"html-slider-response",20,145936,"0.0-2.0-0.18","L1","N1","L1 N1"
49,3217,71,"html-slider-response",21,149260,"0.0-2.0-0.19","J1","X1","J1 X1"
49,4853,64,"html-slider-response",22,154220,"0.0-2.0-0.20","O1","S1","O1 S1"
49,3173,55,"html-slider-response",23,157498,"0.0-2.0-0.21","C2","J1","C2 J1"
49,6215,43,"html-slider-response",24,163820,"0.0-2.0-0.22","K1","S1","K1 S1"
49,4898,64,"html-slider-response",25,168826,"0.0-2.0-0.23","L1","M1","L1 M1"
49,9464,34,"html-slider-response",26,178395,"0.0-2.0-0.24","K1","W1","K1 W1"
