iterationName,id,wID,aID,utterance,rt,target_type,competitor_type,target,foil,trial_type,trial_index,time_elapsed,age_group,age,button_pressed,utt_length,clean_utt
NA,kid_51,51,NA,blue car,7266.6,familiar,far,sedan.jpg,firetruck.jpg,NA,19,441958,kid,8,NA,8,bluecar
NA,kid_51,51,NA,rectangle table,9805.2,familiar,far,diningtable.jpg,wardrobe.jpg,NA,20,452269,kid,8,NA,15,rectangletable
NA,kid_51,51,NA,jellybeans,5043.1,familiar,far,jellybeans.jpg,pretzels.jpg,NA,21,457821,kid,8,NA,10,jellybeans
NA,kid_51,51,NA,orange fish,6382.6,familiar,far,goldfish.jpg,iguana.jpg,NA,22,464707,kid,8,NA,11,orangefish
NA,kid_51,51,NA,blue shirt,5075.3,familiar,far,poloshirt.jpg,dress.jpg,NA,23,470287,kid,8,NA,10,blueshirt
NA,kid_51,51,NA,brown bear,4268.1,familiar,far,grizzlybear.jpg,lion.jpg,NA,24,475060,kid,8,NA,10,brownbear
NA,kid_51,51,NA,dog,8551.5,familiar,far,germanshepherd.jpg,cow.jpg,NA,25,484118,kid,8,NA,3,dog
NA,kid_51,51,NA,bird,6116.6,familiar,far,sparrow.jpg,squirrel.jpg,NA,26,490740,kid,8,NA,4,bird
NA,kid_51,51,NA,running,7769,tangram,far,tangram-55.jpg,tangram-143.jpg,NA,28,511658,kid,8,NA,7,run
NA,kid_51,51,NA,kicking,5229.3,tangram,far,tangram-164.jpg,tangram-64.jpg,NA,29,517393,kid,8,NA,7,kick
NA,kid_51,51,NA,kicking,12477.9,tangram,far,tangram-48.jpg,D1.jpg,NA,30,530375,kid,8,NA,7,kick
NA,kid_51,51,NA,running,4052.1,tangram,far,tangram-67.jpg,G1.jpg,NA,31,534935,kid,8,NA,7,run
NA,kid_51,51,NA,running,4684.9,tangram,far,tangram-90.jpg,tangram-120.jpg,NA,32,540125,kid,8,NA,7,run
NA,kid_51,51,NA,reading aloud,9318.4,tangram,far,H1.jpg,tangram-8.jpg,NA,33,549950,kid,8,NA,13,readaloud
NA,kid_51,51,NA,throwing,7780,tangram,far,A2.jpg,C1.jpg,NA,34,558237,kid,8,NA,8,throw
NA,kid_51,51,NA,walking,5809.8,tangram,far,B1.jpg,tangram-4.jpg,NA,35,564553,kid,8,NA,7,walk
NA,kid_51,51,NA,goldfish,7152.5,familiar,close,goldfish.jpg,swordfish.jpg,NA,37,583939,kid,8,NA,8,goldfish
NA,kid_51,51,NA,brown bear,4015.2,familiar,close,grizzlybear.jpg,polarbear.jpg,NA,38,588459,kid,8,NA,10,brownbear
NA,kid_51,51,NA,jellybeans,4888.6,familiar,close,jellybeans.jpg,gummybears.jpg,NA,39,593853,kid,8,NA,10,jellybeans
NA,kid_51,51,NA,inside table,8197.3,familiar,close,diningtable.jpg,picnictable.jpg,NA,40,602557,kid,8,NA,12,insidetable
NA,kid_51,51,NA,little bird,8219,familiar,close,sparrow.jpg,eagle.jpg,NA,41,611281,kid,8,NA,11,littlebird
NA,kid_51,51,NA,boring t-shirt,12695.5,familiar,close,poloshirt.jpg,hawaiishirt.jpg,NA,42,624485,kid,8,NA,14,boret-shirt
NA,kid_51,51,NA,blue car,8018.2,familiar,close,sedan.jpg,sportscar.jpg,NA,43,633007,kid,8,NA,8,bluecar
NA,kid_51,51,NA,limping dog,13430.1,familiar,close,germanshepherd.jpg,pug.jpg,NA,44,646940,kid,8,NA,11,limpdog
NA,kid_51,51,NA,throwing,6483.4,tangram,close,A2.jpg,tangram-99.jpg,NA,46,666059,kid,8,NA,8,throw
NA,kid_51,51,NA,reading aloud,5521.6,tangram,close,H1.jpg,I1.jpg,NA,47,672089,kid,8,NA,13,readaloud
NA,kid_51,51,NA,sprinting,4962.8,tangram,close,tangram-55.jpg,N1.jpg,NA,48,677556,kid,8,NA,9,sprint
NA,kid_51,51,NA,high kick,5930.5,tangram,close,tangram-48.jpg,tangram-187.jpg,NA,49,683989,kid,8,NA,9,highkick
NA,kid_51,51,NA,chasing,7918.9,tangram,close,tangram-90.jpg,tangram-81.jpg,NA,50,692415,kid,8,NA,7,chase
NA,kid_51,51,NA,falling,5649.9,tangram,close,tangram-164.jpg,tangram-183.jpg,NA,51,698568,kid,8,NA,7,fall
NA,kid_51,51,NA,running,6183.9,tangram,close,tangram-67.jpg,tangram-32.jpg,NA,52,705258,kid,8,NA,7,run
NA,kid_51,51,NA,walking,5830.7,tangram,close,B1.jpg,P1.jpg,NA,53,711596,kid,8,NA,7,walk
NA,kid_51,51,NA,bear,7352,familiar,check,firetruck.jpg,ambulance.jpg,NA,55,762693,kid,8,1,4,bear
NA,kid_51,51,NA,m&ms,19608.7,familiar,check,mnms.jpg,gummybears.jpg,NA,56,782807,kid,8,0,4,mnms
NA,kid_51,51,NA,polar bear,6571.9,familiar,check,polarbear.jpg,grizzlybear.jpg,NA,57,789884,kid,8,0,10,polarbear
NA,kid_51,51,NA,red flower,6780.9,familiar,check,rose.jpg,daisy.jpg,NA,58,797168,kid,8,0,10,redflower
NA,kid_51,51,NA,shirt,6185.8,familiar,check,dressshirt.jpg,campshirt.jpg,NA,59,803858,kid,8,1,5,shirt
NA,kid_51,51,NA,bird,6978.3,familiar,check,parrot.jpg,pigeon.jpg,NA,60,811338,kid,8,1,4,bird
NA,kid_51,51,NA,dog,12236.2,familiar,check,husky.jpg,dalmatian.jpg,NA,61,824076,kid,8,1,3,dog
NA,kid_51,51,NA,cup,6406.4,familiar,check,apple.jpg,pear.jpg,NA,62,830987,kid,8,1,3,cup
NA,kid_51,51,NA,table,6655.6,familiar,check,pug.jpg,rabbit.jpg,NA,63,838147,kid,8,1,5,table
NA,kid_52,52,NA,orange fish,7230.2,familiar,close,goldfish.jpg,swordfish.jpg,NA,19,1667116,kid,8,NA,11,orangefish
NA,kid_52,52,NA,brown bear,5920.2,familiar,close,grizzlybear.jpg,polarbear.jpg,NA,20,1673547,kid,8,NA,10,brownbear
NA,kid_52,52,NA,plain shirt,7364.9,familiar,close,poloshirt.jpg,hawaiishirt.jpg,NA,21,1681417,kid,8,NA,11,plainshirt
NA,kid_52,52,NA,brown table,12368.9,familiar,close,diningtable.jpg,picnictable.jpg,NA,22,1694292,kid,8,NA,11,browntable
NA,kid_52,52,NA,blue car,5725.8,familiar,close,sedan.jpg,sportscar.jpg,NA,23,1700524,kid,8,NA,8,bluecar
NA,kid_52,52,NA,brown bird,14152.5,familiar,close,sparrow.jpg,eagle.jpg,NA,24,1715183,kid,8,NA,10,brownbird
NA,kid_52,52,NA,dog with black spots,13424.9,familiar,close,germanshepherd.jpg,pug.jpg,NA,25,1729115,kid,8,NA,20,dogwithblackspot
NA,kid_52,52,NA,jellybeans,4740.3,familiar,close,jellybeans.jpg,gummybears.jpg,NA,26,1734362,kid,8,NA,10,jellybeans
NA,kid_52,52,NA,many shapes,7840.7,tangram,far,A2.jpg,C1.jpg,NA,28,1754645,kid,8,NA,11,manyshape
NA,kid_52,52,NA,person kicking their leg,9074,tangram,far,tangram-48.jpg,D1.jpg,NA,29,1764226,kid,8,NA,24,kicktheirleg
NA,kid_52,52,NA,walking person,7053.7,tangram,far,tangram-164.jpg,tangram-64.jpg,NA,30,1771784,kid,8,NA,14,walk
NA,kid_52,52,NA,sad person,6862.6,tangram,far,B1.jpg,tangram-4.jpg,NA,31,1779151,kid,8,NA,10,sad
NA,kid_52,52,NA,a dancing person,7164.3,tangram,far,tangram-90.jpg,tangram-120.jpg,NA,32,1786821,kid,8,NA,16,dance
NA,kid_52,52,NA,a kneeling person,6080.1,tangram,far,tangram-67.jpg,G1.jpg,NA,33,1793406,kid,8,NA,17,kneel
NA,kid_52,52,NA,a running person,7716.5,tangram,far,tangram-55.jpg,tangram-143.jpg,NA,34,1801629,kid,8,NA,16,run
NA,kid_52,52,NA,praying person,5473.1,tangram,far,H1.jpg,tangram-8.jpg,NA,35,1807606,kid,8,NA,14,pray
NA,kid_52,52,NA,jellybeans,5301,familiar,far,jellybeans.jpg,pretzels.jpg,NA,37,1825371,kid,8,NA,10,jellybeans
NA,kid_52,52,NA,blue car,4617.8,familiar,far,sedan.jpg,firetruck.jpg,NA,38,1830495,kid,8,NA,8,bluecar
NA,kid_52,52,NA,dog,6106.6,familiar,far,germanshepherd.jpg,cow.jpg,NA,39,1837106,kid,8,NA,3,dog
NA,kid_52,52,NA,bear,3756.9,familiar,far,grizzlybear.jpg,lion.jpg,NA,40,1841370,kid,8,NA,4,bear
NA,kid_52,52,NA,fish,3600.5,familiar,far,goldfish.jpg,iguana.jpg,NA,41,1845477,kid,8,NA,4,fish
NA,kid_52,52,NA,table,3713,familiar,far,diningtable.jpg,wardrobe.jpg,NA,42,1849696,kid,8,NA,5,table
NA,kid_52,52,NA,bird,3759.4,familiar,far,sparrow.jpg,squirrel.jpg,NA,43,1853959,kid,8,NA,4,bird
NA,kid_52,52,NA,shirt,3679.4,familiar,far,poloshirt.jpg,dress.jpg,NA,44,1858142,kid,8,NA,5,shirt
NA,kid_52,52,NA,kicking person,6628.6,tangram,close,tangram-48.jpg,tangram-187.jpg,NA,46,1877842,kid,8,NA,14,kick
NA,kid_52,52,NA,praying person,4775.3,tangram,close,H1.jpg,I1.jpg,NA,47,1883124,kid,8,NA,14,pray
NA,kid_52,52,NA,running,5034.5,tangram,close,tangram-67.jpg,tangram-32.jpg,NA,48,1888662,kid,8,NA,7,run
NA,kid_52,52,NA,running,6195.8,tangram,close,A2.jpg,tangram-99.jpg,NA,49,1895364,kid,8,NA,7,run
NA,kid_52,52,NA,sad,4092.3,tangram,close,B1.jpg,P1.jpg,NA,50,1899959,kid,8,NA,3,sad
NA,kid_52,52,NA,dancing,6109.1,tangram,close,tangram-164.jpg,tangram-183.jpg,NA,51,1906571,kid,8,NA,7,dance
NA,kid_52,52,NA,dancing,5731.4,tangram,close,tangram-90.jpg,tangram-81.jpg,NA,52,1912809,kid,8,NA,7,dance
NA,kid_52,52,NA,running,4487.6,tangram,close,tangram-55.jpg,N1.jpg,NA,53,1917804,kid,8,NA,7,run
NA,kid_52,52,NA,red flower,6284.8,familiar,check,rose.jpg,daisy.jpg,NA,55,1962659,kid,8,0,10,redflower
NA,kid_52,52,NA,bear,5982.7,familiar,check,firetruck.jpg,ambulance.jpg,NA,56,1969147,kid,8,1,4,bear
NA,kid_52,52,NA,shirt,6565.1,familiar,check,dressshirt.jpg,campshirt.jpg,NA,57,1976216,kid,8,1,5,shirt
NA,kid_52,52,NA,dog,6705.4,familiar,check,husky.jpg,dalmatian.jpg,NA,58,1983427,kid,8,1,3,dog
NA,kid_52,52,NA,bird,6619.6,familiar,check,parrot.jpg,pigeon.jpg,NA,59,1990548,kid,8,1,4,bird
NA,kid_52,52,NA,polar bear,6052.8,familiar,check,polarbear.jpg,grizzlybear.jpg,NA,60,1997104,kid,8,0,10,polarbear
NA,kid_52,52,NA,cup,6307,familiar,check,apple.jpg,pear.jpg,NA,61,2003916,kid,8,1,3,cup
NA,kid_52,52,NA,table,6653.3,familiar,check,pug.jpg,rabbit.jpg,NA,62,2011074,kid,8,1,5,table
NA,kid_52,52,NA,m&ms,6662.8,familiar,check,mnms.jpg,gummybears.jpg,NA,63,2018244,kid,8,0,4,mnms
NA,kid_53,53,NA,small bird,6175.8,familiar,close,sparrow.jpg,eagle.jpg,NA,19,1577333,kid,8,NA,10,smallbird
NA,kid_53,53,NA,blue car,4950.8,familiar,close,sedan.jpg,sportscar.jpg,NA,20,1582790,kid,8,NA,8,bluecar
NA,kid_53,53,NA,german shepard,8617.9,familiar,close,germanshepherd.jpg,pug.jpg,NA,21,1591915,kid,8,NA,14,germanshepard
NA,kid_53,53,NA,jellybeans,5763.6,familiar,close,jellybeans.jpg,gummybears.jpg,NA,22,1598182,kid,8,NA,10,jellybeans
NA,kid_53,53,NA,plain blue shirt,6254.3,familiar,close,poloshirt.jpg,hawaiishirt.jpg,NA,23,1604942,kid,8,NA,16,plainblueshirt
NA,kid_53,53,NA,table,5968.6,familiar,close,diningtable.jpg,picnictable.jpg,NA,24,1611417,kid,8,NA,5,table
NA,kid_53,53,NA,goldfish,4247.4,familiar,close,goldfish.jpg,swordfish.jpg,NA,25,1616167,kid,8,NA,8,goldfish
NA,kid_53,53,NA,brown bear,4643.2,familiar,close,grizzlybear.jpg,polarbear.jpg,NA,26,1621314,kid,8,NA,10,brownbear
NA,kid_53,53,NA,person running,7807.2,tangram,close,tangram-67.jpg,tangram-32.jpg,NA,28,1641834,kid,8,NA,14,personrun
NA,kid_53,53,NA,somebody sticking out their arms,10354.6,tangram,close,H1.jpg,I1.jpg,NA,29,1652693,kid,8,NA,32,somebodystickouttheirarm
NA,kid_53,53,NA,person running,7404,tangram,close,tangram-90.jpg,tangram-81.jpg,NA,30,1660600,kid,8,NA,14,personrun
NA,kid_53,53,NA,person trying to hide while he's running,13770.4,tangram,close,tangram-55.jpg,N1.jpg,NA,31,1674874,kid,8,NA,40,persontrytohidewhilehe'srun
NA,kid_53,53,NA,somebody sitting down and sticking their leg up,12658.8,tangram,close,tangram-164.jpg,tangram-183.jpg,NA,32,1688039,kid,8,NA,47,somebodysitdownandsticktheirlegup
NA,kid_53,53,NA,somebody walking with head hung down,10294.1,tangram,close,B1.jpg,P1.jpg,NA,33,1698840,kid,8,NA,36,somebodywalkwithheadhangdown
NA,kid_53,53,NA,somebody with their arm poking out behind their head,20101.1,tangram,close,A2.jpg,tangram-99.jpg,NA,34,1719445,kid,8,NA,52,somebodywiththeirarmpokeoutbehindtheirhead
NA,kid_53,53,NA,somebody standing on their toes and kicking their leg,13165.8,tangram,close,tangram-48.jpg,tangram-187.jpg,NA,35,1733119,kid,8,NA,53,somebodystandontheirtoeandkicktheirleg
NA,kid_53,53,NA,table,4307.1,familiar,far,diningtable.jpg,wardrobe.jpg,NA,37,1749960,kid,8,NA,5,table
NA,kid_53,53,NA,goldfish,3788.4,familiar,far,goldfish.jpg,iguana.jpg,NA,38,1754255,kid,8,NA,8,goldfish
NA,kid_53,53,NA,plain blue shirt,4396.5,familiar,far,poloshirt.jpg,dress.jpg,NA,39,1759158,kid,8,NA,16,plainblueshirt
NA,kid_53,53,NA,brown bear,3931.1,familiar,far,grizzlybear.jpg,lion.jpg,NA,40,1763593,kid,8,NA,10,brownbear
NA,kid_53,53,NA,german shepard,5175.4,familiar,far,germanshepherd.jpg,cow.jpg,NA,41,1769275,kid,8,NA,14,germanshepard
NA,kid_53,53,NA,jellybeans,3877.7,familiar,far,jellybeans.jpg,pretzels.jpg,NA,42,1773658,kid,8,NA,10,jellybeans
NA,kid_53,53,NA,small bird,4425.5,familiar,far,sparrow.jpg,squirrel.jpg,NA,43,1778590,kid,8,NA,10,smallbird
NA,kid_53,53,NA,blue car,5253.4,familiar,far,sedan.jpg,firetruck.jpg,NA,44,1784350,kid,8,NA,8,bluecar
NA,kid_53,53,NA,standing on toes and kicking leg,7863.8,tangram,far,tangram-48.jpg,D1.jpg,NA,46,1804276,kid,8,NA,32,standontoeandkickleg
NA,kid_53,53,NA,sticking out their arms,5789.6,tangram,far,H1.jpg,tangram-8.jpg,NA,47,1810569,kid,8,NA,23,stickouttheirarm
NA,kid_53,53,NA,sitting down and putting up leg,9000.6,tangram,far,tangram-164.jpg,tangram-64.jpg,NA,48,1820076,kid,8,NA,31,sitdownandputtingupleg
NA,kid_53,53,NA,somebody walking,6419.7,tangram,far,tangram-90.jpg,tangram-120.jpg,NA,49,1827002,kid,8,NA,16,somebodywalk
NA,kid_53,53,NA,somebody walking with head down,8745.4,tangram,far,B1.jpg,tangram-4.jpg,NA,50,1836253,kid,8,NA,31,somebodywalkwithheaddown
NA,kid_53,53,NA,somebody trying to run in secret,10046.3,tangram,far,tangram-55.jpg,tangram-143.jpg,NA,51,1846802,kid,8,NA,32,somebodytrytoruninsecret
NA,kid_53,53,NA,somebody sticking out their arm behind their head,20050.7,tangram,far,A2.jpg,C1.jpg,NA,52,1867361,kid,8,NA,49,somebodystickouttheirarmbehindtheirhead
NA,kid_53,53,NA,somebody running,5208.6,tangram,far,tangram-67.jpg,G1.jpg,NA,53,1873076,kid,8,NA,16,somebodyrun
NA,kid_53,53,NA,polar bear,6910.4,familiar,check,polarbear.jpg,grizzlybear.jpg,NA,55,1922357,kid,8,0,10,polarbear
NA,kid_53,53,NA,red flower,6803.4,familiar,check,rose.jpg,daisy.jpg,NA,56,1929664,kid,8,0,10,redflower
NA,kid_53,53,NA,bird,6604.3,familiar,check,parrot.jpg,pigeon.jpg,NA,57,1936773,kid,8,1,4,bird
NA,kid_53,53,NA,shirt,6821.4,familiar,check,dressshirt.jpg,campshirt.jpg,NA,58,1944096,kid,8,0,5,shirt
NA,kid_53,53,NA,table,6051.3,familiar,check,pug.jpg,rabbit.jpg,NA,59,1950652,kid,8,1,5,table
NA,kid_53,53,NA,cup,6206.6,familiar,check,apple.jpg,pear.jpg,NA,60,1957364,kid,8,1,3,cup
NA,kid_53,53,NA,dog,6608.8,familiar,check,husky.jpg,dalmatian.jpg,NA,61,1964476,kid,8,1,3,dog
NA,kid_53,53,NA,bear,6391.3,familiar,check,firetruck.jpg,ambulance.jpg,NA,62,1971373,kid,8,1,4,bear
NA,kid_53,53,NA,m&ms,6357.7,familiar,check,mnms.jpg,gummybears.jpg,NA,63,1978237,kid,8,0,4,mnms
NA,kid_54,54,NA,orange fish,11224.1,familiar,far,goldfish.jpg,iguana.jpg,NA,19,695463,kid,8,NA,11,orangefish
NA,kid_54,54,NA,light blue shirt,8893.8,familiar,far,poloshirt.jpg,dress.jpg,NA,20,704864,kid,8,NA,16,lightblueshirt
NA,kid_54,54,NA,dark blue car,6785.5,familiar,far,sedan.jpg,firetruck.jpg,NA,21,712155,kid,8,NA,13,darkbluecar
NA,kid_54,54,NA,grey bird,7163.5,familiar,far,sparrow.jpg,squirrel.jpg,NA,22,719822,kid,8,NA,9,greybird
NA,kid_54,54,NA,jellybeans,6961.4,familiar,far,jellybeans.jpg,pretzels.jpg,NA,23,727291,kid,8,NA,10,jellybeans
NA,kid_54,54,NA,brown bear,6601.3,familiar,far,grizzlybear.jpg,lion.jpg,NA,24,734396,kid,8,NA,10,brownbear
NA,kid_54,54,NA,white and black dog,11854.4,familiar,far,germanshepherd.jpg,cow.jpg,NA,25,746758,kid,8,NA,19,whiteandblackdog
NA,kid_54,54,NA,a square table,11469,familiar,far,diningtable.jpg,wardrobe.jpg,NA,26,758736,kid,8,NA,14,asquaretable
NA,kid_54,54,NA,person running,10097.4,tangram,far,tangram-55.jpg,tangram-143.jpg,NA,28,780994,kid,8,NA,14,run
NA,kid_54,54,NA,person being happy,11488.7,tangram,far,tangram-90.jpg,tangram-120.jpg,NA,29,792988,kid,8,NA,18,behappy
NA,kid_54,54,NA,person dancing funny,11015.7,tangram,far,tangram-164.jpg,tangram-64.jpg,NA,30,804509,kid,8,NA,20,dancefunny
NA,kid_54,54,NA,person running super fast,8582.4,tangram,far,tangram-67.jpg,G1.jpg,NA,31,813595,kid,8,NA,25,runsuperfast
NA,kid_54,54,NA,person dabbing,9774.4,tangram,far,A2.jpg,C1.jpg,NA,32,823873,kid,8,NA,14,dab
NA,kid_54,54,NA,person who feels sad,7415.1,tangram,far,B1.jpg,tangram-4.jpg,NA,33,831791,kid,8,NA,20,whofeelsad
NA,kid_54,54,NA,person opening a box,7461.6,tangram,far,H1.jpg,tangram-8.jpg,NA,34,839757,kid,8,NA,20,openabox
NA,kid_54,54,NA,person kicking,5216.8,tangram,far,tangram-48.jpg,D1.jpg,NA,35,845480,kid,8,NA,14,kick
NA,kid_54,54,NA,black and white dog,7125.1,familiar,close,germanshepherd.jpg,pug.jpg,NA,37,864947,kid,8,NA,19,blackandwhitedog
NA,kid_54,54,NA,grey bird,4988.8,familiar,close,sparrow.jpg,eagle.jpg,NA,38,870442,kid,8,NA,9,greybird
NA,kid_54,54,NA,orange goldfish,6542.4,familiar,close,goldfish.jpg,swordfish.jpg,NA,39,877491,kid,8,NA,15,orangegoldfish
NA,kid_54,54,NA,dark blue car,9986.5,familiar,close,sedan.jpg,sportscar.jpg,NA,40,887984,kid,8,NA,13,darkbluecar
NA,kid_54,54,NA,bright blue shirt,7987.4,familiar,close,poloshirt.jpg,hawaiishirt.jpg,NA,41,896475,kid,8,NA,17,brightblueshirt
NA,kid_54,54,NA,brown bear,8077.4,familiar,close,grizzlybear.jpg,polarbear.jpg,NA,42,905059,kid,8,NA,10,brownbear
NA,kid_54,54,NA,rainbow jellybeans,9119.4,familiar,close,jellybeans.jpg,gummybears.jpg,NA,43,914686,kid,8,NA,18,rainbowjellybeans
NA,kid_54,54,NA,brown square table,7624,familiar,close,diningtable.jpg,picnictable.jpg,NA,44,922816,kid,8,NA,18,brownsquaretable
NA,kid_54,54,NA,person opening a box,7377.9,tangram,close,H1.jpg,I1.jpg,NA,46,943258,kid,8,NA,20,openabox
NA,kid_54,54,NA,person running,5758.7,tangram,close,tangram-67.jpg,tangram-32.jpg,NA,47,949522,kid,8,NA,14,run
NA,kid_54,54,NA,person dancing funny,7338.8,tangram,close,tangram-164.jpg,tangram-183.jpg,NA,48,957365,kid,8,NA,20,dancefunny
NA,kid_54,54,NA,person doing karate,10920.3,tangram,close,tangram-48.jpg,tangram-187.jpg,NA,49,968791,kid,8,NA,19,dokarate
NA,kid_54,54,NA,person dabbing,6837.5,tangram,close,A2.jpg,tangram-99.jpg,NA,50,976132,kid,8,NA,14,dab
NA,kid_54,54,NA,person who is happy,7069.7,tangram,close,tangram-90.jpg,tangram-81.jpg,NA,51,983707,kid,8,NA,19,whobehappy
NA,kid_54,54,NA,person running,6016,tangram,close,tangram-55.jpg,N1.jpg,NA,52,990229,kid,8,NA,14,run
NA,kid_54,54,NA,person who is sad,5592.5,tangram,close,B1.jpg,P1.jpg,NA,53,996327,kid,8,NA,17,whobesad
NA,kid_54,54,NA,bird,7387.9,familiar,check,parrot.jpg,pigeon.jpg,NA,55,1045578,kid,8,1,4,bird
NA,kid_54,54,NA,bear,6921,familiar,check,firetruck.jpg,ambulance.jpg,NA,56,1053003,kid,8,1,4,bear
NA,kid_54,54,NA,polar bear,6007.5,familiar,check,polarbear.jpg,grizzlybear.jpg,NA,57,1059516,kid,8,0,10,polarbear
NA,kid_54,54,NA,dog,6472.3,familiar,check,husky.jpg,dalmatian.jpg,NA,58,1066491,kid,8,1,3,dog
NA,kid_54,54,NA,cup,6533.9,familiar,check,apple.jpg,pear.jpg,NA,59,1073529,kid,8,1,3,cup
NA,kid_54,54,NA,m&ms,6905.2,familiar,check,mnms.jpg,gummybears.jpg,NA,60,1080938,kid,8,0,4,mnms
NA,kid_54,54,NA,shirt,6224.7,familiar,check,dressshirt.jpg,campshirt.jpg,NA,61,1087666,kid,8,1,5,shirt
NA,kid_54,54,NA,red flower,8057.4,familiar,check,rose.jpg,daisy.jpg,NA,62,1096226,kid,8,0,10,redflower
NA,kid_54,54,NA,table,7070.2,familiar,check,pug.jpg,rabbit.jpg,NA,63,1103800,kid,8,1,5,table
NA,kid_55,55,NA,big with ears standing up,52618,familiar,close,germanshepherd.jpg,pug.jpg,NA,19,946641,kid,8,NA,25,bigwithearstandup
NA,kid_55,55,NA,"small, brown bird with small beak",23729.5,familiar,close,sparrow.jpg,eagle.jpg,NA,20,970875,kid,8,NA,33,smallbrownbirdwithsmallbeak
NA,kid_55,55,NA,brown bear that's walking,12285.7,familiar,close,grizzlybear.jpg,polarbear.jpg,NA,21,983668,kid,8,NA,25,brownbearthat'swalk
NA,kid_55,55,NA,smaller orange fish,16475.2,familiar,close,goldfish.jpg,swordfish.jpg,NA,22,1000649,kid,8,NA,19,smallorangefish
NA,kid_55,55,NA,bunch of jellybeans,18076.3,familiar,close,jellybeans.jpg,gummybears.jpg,NA,23,1019229,kid,8,NA,19,bunchofjellybeans
NA,kid_55,55,NA,"bigger, more brown table",15693.4,familiar,close,diningtable.jpg,picnictable.jpg,NA,24,1035427,kid,8,NA,24,bigmuchbrowntable
NA,kid_55,55,NA,"bigger, sky blue shirt",24949.8,familiar,close,poloshirt.jpg,hawaiishirt.jpg,NA,25,1060882,kid,8,NA,22,bigskyblueshirt
NA,kid_55,55,NA,"bigger, blue car",22450.4,familiar,close,sedan.jpg,sportscar.jpg,NA,26,1083840,kid,8,NA,16,bigbluecar
NA,kid_55,55,NA,someone opening a box,22634.5,tangram,close,H1.jpg,I1.jpg,NA,28,1119232,kid,8,NA,21,openabox
NA,kid_55,55,NA,someone running with triangle shaped body,15062.8,tangram,close,tangram-90.jpg,tangram-81.jpg,NA,29,1134804,kid,8,NA,41,runwithtriangleshapebody
NA,kid_55,55,NA,someone going up and down with tilted head,16569,tangram,close,tangram-48.jpg,tangram-187.jpg,NA,30,1151878,kid,8,NA,42,goupanddownwithtilthead
NA,kid_55,55,NA,someone in the air lifting their leg,11525.5,tangram,close,tangram-164.jpg,tangram-183.jpg,NA,31,1163912,kid,8,NA,36,intheairlifttheirleg
NA,kid_55,55,NA,someone running with their legs in not out,13990.2,tangram,close,tangram-55.jpg,N1.jpg,NA,32,1178408,kid,8,NA,42,runwiththeirleginnotout
NA,kid_55,55,NA,someone walking and leaning over,10671.5,tangram,close,B1.jpg,P1.jpg,NA,33,1189585,kid,8,NA,32,walkandleanover
NA,kid_55,55,NA,someone walking fast,13182.4,tangram,close,A2.jpg,tangram-99.jpg,NA,34,1203271,kid,8,NA,20,walkfast
NA,kid_55,55,NA,someone running with legs open,10338.5,tangram,close,tangram-67.jpg,tangram-32.jpg,NA,35,1214114,kid,8,NA,30,runwithlegopen
NA,kid_55,55,NA,brown bear standing up,14308.3,familiar,far,grizzlybear.jpg,lion.jpg,NA,37,1240169,kid,8,NA,22,brownbearstandup
NA,kid_55,55,NA,sky blue shirt with sleeves,22546.6,familiar,far,poloshirt.jpg,dress.jpg,NA,38,1263223,kid,8,NA,27,skyblueshirtwithsleeve
NA,kid_55,55,NA,brown table,9475.6,familiar,far,diningtable.jpg,wardrobe.jpg,NA,39,1273204,kid,8,NA,11,browntable
NA,kid_55,55,NA,brown bird,9586.9,familiar,far,sparrow.jpg,squirrel.jpg,NA,40,1283294,kid,8,NA,10,brownbird
NA,kid_55,55,NA,black and tan dog,8990.9,familiar,far,germanshepherd.jpg,cow.jpg,NA,41,1292791,kid,8,NA,17,blackandtandog
NA,kid_55,55,NA,blue car,7063.2,familiar,far,sedan.jpg,firetruck.jpg,NA,42,1300363,kid,8,NA,8,bluecar
NA,kid_55,55,NA,orange fish,12638.6,familiar,far,goldfish.jpg,iguana.jpg,NA,43,1313504,kid,8,NA,11,orangefish
NA,kid_55,55,NA,different colored jellybeans,9038.9,familiar,far,jellybeans.jpg,pretzels.jpg,NA,44,1323048,kid,8,NA,28,differentcolorjellybeans
NA,kid_55,55,NA,someone walking slowly,6013.8,tangram,far,B1.jpg,tangram-4.jpg,NA,46,1342249,kid,8,NA,22,walkslowly
NA,kid_55,55,NA,someone running,5095.4,tangram,far,tangram-90.jpg,tangram-120.jpg,NA,47,1347848,kid,8,NA,15,run
NA,kid_55,55,NA,someone opening a box,5944.4,tangram,far,H1.jpg,tangram-8.jpg,NA,48,1354297,kid,8,NA,21,openabox
NA,kid_55,55,NA,someone walking fast,7390.6,tangram,far,A2.jpg,C1.jpg,NA,49,1362193,kid,8,NA,20,walkfast
NA,kid_55,55,NA,someone kicking their legs,9467.7,tangram,far,tangram-48.jpg,D1.jpg,NA,50,1372167,kid,8,NA,26,kicktheirleg
NA,kid_55,55,NA,someone running in a rush,8465.8,tangram,far,tangram-55.jpg,tangram-143.jpg,NA,51,1381138,kid,8,NA,25,runinarush
NA,kid_55,55,NA,someone sitting down,10131.9,tangram,far,tangram-164.jpg,tangram-64.jpg,NA,52,1391777,kid,8,NA,20,sitdown
NA,kid_55,55,NA,someone running,4295.6,tangram,far,tangram-67.jpg,G1.jpg,NA,53,1396579,kid,8,NA,15,run
NA,kid_55,55,NA,red flower,7130.6,familiar,check,rose.jpg,daisy.jpg,NA,55,1444881,kid,8,0,10,redflower
NA,kid_55,55,NA,dog,8619.4,familiar,check,husky.jpg,dalmatian.jpg,NA,56,1454003,kid,8,1,3,dog
NA,kid_55,55,NA,m&ms,6205.7,familiar,check,mnms.jpg,gummybears.jpg,NA,57,1460713,kid,8,0,4,mnms
NA,kid_55,55,NA,polar bear,6520.3,familiar,check,polarbear.jpg,grizzlybear.jpg,NA,58,1467738,kid,8,0,10,polarbear
NA,kid_55,55,NA,table,13868.8,familiar,check,pug.jpg,rabbit.jpg,NA,59,1482109,kid,8,1,5,table
NA,kid_55,55,NA,shirt,6372.4,familiar,check,dressshirt.jpg,campshirt.jpg,NA,60,1488984,kid,8,1,5,shirt
NA,kid_55,55,NA,cup,5944.1,familiar,check,apple.jpg,pear.jpg,NA,61,1495433,kid,8,1,3,cup
NA,kid_55,55,NA,bird,6479.3,familiar,check,parrot.jpg,pigeon.jpg,NA,62,1502415,kid,8,1,4,bird
NA,kid_55,55,NA,bear,6006.2,familiar,check,firetruck.jpg,ambulance.jpg,NA,63,1508923,kid,8,1,4,bear
NA,kid_56,56,NA,blue shirt,8412.2,familiar,far,poloshirt.jpg,dress.jpg,NA,19,195534,kid,8,NA,10,blueshirt
NA,kid_56,56,NA,yummy candy,8923.3,familiar,far,jellybeans.jpg,pretzels.jpg,NA,20,204965,kid,8,NA,11,yummycandy
NA,kid_56,56,NA,table,4045.3,familiar,far,diningtable.jpg,wardrobe.jpg,NA,21,209516,kid,8,NA,5,table
NA,kid_56,56,NA,dog,3636.7,familiar,far,germanshepherd.jpg,cow.jpg,NA,22,213660,kid,8,NA,3,dog
NA,kid_56,56,NA,bear,3549.2,familiar,far,grizzlybear.jpg,lion.jpg,NA,23,217713,kid,8,NA,4,bear
NA,kid_56,56,NA,fish,3533.3,familiar,far,goldfish.jpg,iguana.jpg,NA,24,221754,kid,8,NA,4,fish
NA,kid_56,56,NA,bird,3557.7,familiar,far,sparrow.jpg,squirrel.jpg,NA,25,225816,kid,8,NA,4,bird
NA,kid_56,56,NA,car,3606.2,familiar,far,sedan.jpg,firetruck.jpg,NA,26,229927,kid,8,NA,3,car
NA,kid_56,56,NA,person running,10080.7,tangram,far,tangram-90.jpg,tangram-120.jpg,NA,28,252671,kid,8,NA,14,run
NA,kid_56,56,NA,person standing still,7662,tangram,far,H1.jpg,tangram-8.jpg,NA,29,260841,kid,8,NA,21,standstill
NA,kid_56,56,NA,someone running,5944.5,tangram,far,tangram-55.jpg,tangram-143.jpg,NA,30,267291,kid,8,NA,15,someonerun
NA,kid_56,56,NA,somebody walking,6514.6,tangram,far,A2.jpg,C1.jpg,NA,31,274311,kid,8,NA,16,walk
NA,kid_56,56,NA,somebody looking down,8454.1,tangram,far,B1.jpg,tangram-4.jpg,NA,32,283270,kid,8,NA,21,lookdown
NA,kid_56,56,NA,somebody running,6550,tangram,far,tangram-67.jpg,G1.jpg,NA,33,290326,kid,8,NA,16,run
NA,kid_56,56,NA,somebody kicking something,7467.8,tangram,far,tangram-164.jpg,tangram-64.jpg,NA,34,298297,kid,8,NA,26,kicksomething
NA,kid_56,56,NA,somebody kicking the air,9444.6,tangram,far,tangram-48.jpg,D1.jpg,NA,35,308244,kid,8,NA,24,kicktheair
NA,kid_56,56,NA,dog leaning back,10227.5,familiar,close,germanshepherd.jpg,pug.jpg,NA,37,332491,kid,8,NA,16,dogleanback
NA,kid_56,56,NA,brown bear,5058.9,familiar,close,grizzlybear.jpg,polarbear.jpg,NA,38,338056,kid,8,NA,10,brownbear
NA,kid_56,56,NA,blue car,4341.9,familiar,close,sedan.jpg,sportscar.jpg,NA,39,342903,kid,8,NA,8,bluecar
NA,kid_56,56,NA,little bird,6637.2,familiar,close,sparrow.jpg,eagle.jpg,NA,40,350050,kid,8,NA,11,littlebird
NA,kid_56,56,NA,goldfish,5363.2,familiar,close,goldfish.jpg,swordfish.jpg,NA,41,355918,kid,8,NA,8,goldfish
NA,kid_56,56,NA,blue shirt with no pattern,8615.7,familiar,close,poloshirt.jpg,hawaiishirt.jpg,NA,42,365038,kid,8,NA,26,blueshirtwithnopattern
NA,kid_56,56,NA,circle candy,8316.7,familiar,close,jellybeans.jpg,gummybears.jpg,NA,43,373863,kid,8,NA,12,circlecandy
NA,kid_56,56,NA,table with no seats,7358.6,familiar,close,diningtable.jpg,picnictable.jpg,NA,44,381728,kid,8,NA,19,tablewithnoseat
NA,kid_56,56,NA,person looking down,7559.9,tangram,close,B1.jpg,P1.jpg,NA,46,403178,kid,8,NA,19,lookdown
NA,kid_56,56,NA,somebody not holding anything,9724,tangram,close,H1.jpg,I1.jpg,NA,47,413404,kid,8,NA,29,notholdanything
NA,kid_56,56,NA,someone that's going to stop running,16458.7,tangram,close,tangram-90.jpg,tangram-81.jpg,NA,48,430369,kid,8,NA,36,someonethat'sgotostoprun
NA,kid_56,56,NA,somebody who is going run faster,10567.4,tangram,close,tangram-67.jpg,tangram-32.jpg,NA,49,441440,kid,8,NA,32,whobegorunfast
NA,kid_56,56,NA,somebody kicking the air with lots of force,12337.3,tangram,close,tangram-48.jpg,tangram-187.jpg,NA,50,454282,kid,8,NA,43,kicktheairwithlotofforce
NA,kid_56,56,NA,somebody walking,6477.1,tangram,close,A2.jpg,tangram-99.jpg,NA,51,461263,kid,8,NA,16,walk
NA,kid_56,56,NA,somebody running really fast,8380.9,tangram,close,tangram-55.jpg,N1.jpg,NA,52,470146,kid,8,NA,28,runreallyfast
NA,kid_56,56,NA,somebody trying to balance on one foot,10351.9,tangram,close,tangram-164.jpg,tangram-183.jpg,NA,53,481002,kid,8,NA,38,trytobalanceononefoot
NA,kid_56,56,NA,cup,7257.6,familiar,check,apple.jpg,pear.jpg,NA,55,528888,kid,8,1,3,cup
NA,kid_56,56,NA,bear,7066.5,familiar,check,firetruck.jpg,ambulance.jpg,NA,56,536459,kid,8,1,4,bear
NA,kid_56,56,NA,polar bear,6411.8,familiar,check,polarbear.jpg,grizzlybear.jpg,NA,57,543376,kid,8,0,10,polarbear
NA,kid_56,56,NA,bird,6115.3,familiar,check,parrot.jpg,pigeon.jpg,NA,58,549995,kid,8,1,4,bird
NA,kid_56,56,NA,table,6242.7,familiar,check,pug.jpg,rabbit.jpg,NA,59,556744,kid,8,1,5,table
NA,kid_56,56,NA,dog,6621.6,familiar,check,husky.jpg,dalmatian.jpg,NA,60,563868,kid,8,1,3,dog
NA,kid_56,56,NA,red flower,7243.6,familiar,check,rose.jpg,daisy.jpg,NA,61,571617,kid,8,0,10,redflower
NA,kid_56,56,NA,shirt,7241.1,familiar,check,dressshirt.jpg,campshirt.jpg,NA,62,579367,kid,8,1,5,shirt
NA,kid_56,56,NA,m&ms,6432.9,familiar,check,mnms.jpg,gummybears.jpg,NA,63,586307,kid,8,0,4,mnms
NA,kid_57,57,NA,dog,6443.6,familiar,far,germanshepherd.jpg,cow.jpg,NA,19,240139,kid,5,NA,3,dog
NA,kid_57,57,NA,bear,5161.5,familiar,far,grizzlybear.jpg,lion.jpg,NA,20,245808,kid,5,NA,4,bear
NA,kid_57,57,NA,car,4217.9,familiar,far,sedan.jpg,firetruck.jpg,NA,21,250529,kid,5,NA,3,car
NA,kid_57,57,NA,fish,4026.7,familiar,far,goldfish.jpg,iguana.jpg,NA,22,255060,kid,5,NA,4,fish
NA,kid_57,57,NA,shirt,3724.2,familiar,far,poloshirt.jpg,dress.jpg,NA,23,259287,kid,5,NA,5,shirt
NA,kid_57,57,NA,table,4149.2,familiar,far,diningtable.jpg,wardrobe.jpg,NA,24,263940,kid,5,NA,5,table
NA,kid_57,57,NA,bird,3725.4,familiar,far,sparrow.jpg,squirrel.jpg,NA,25,268171,kid,5,NA,4,bird
NA,kid_57,57,NA,candy,4264,familiar,far,jellybeans.jpg,pretzels.jpg,NA,26,272942,kid,5,NA,5,candy
NA,kid_57,57,NA,person pointing,7029.3,tangram,far,H1.jpg,tangram-8.jpg,NA,28,294602,kid,5,NA,15,point
NA,kid_57,57,NA,person running,7073.5,tangram,far,A2.jpg,C1.jpg,NA,29,302179,kid,5,NA,14,run
NA,kid_57,57,NA,person running really fast,8258.2,tangram,far,tangram-55.jpg,tangram-143.jpg,NA,30,310943,kid,5,NA,26,runreallyfast
NA,kid_57,57,NA,person running,6666,tangram,far,tangram-67.jpg,G1.jpg,NA,31,318115,kid,5,NA,14,run
NA,kid_57,57,NA,person balancing on one foot,9190.2,tangram,far,tangram-90.jpg,tangram-120.jpg,NA,32,327807,kid,5,NA,28,balanceononefoot
NA,kid_57,57,NA,person walking,4572.9,tangram,far,B1.jpg,tangram-4.jpg,NA,33,332886,kid,5,NA,14,walk
NA,kid_57,57,NA,person kicking,5568.7,tangram,far,tangram-164.jpg,tangram-64.jpg,NA,34,338957,kid,5,NA,14,kick
NA,kid_57,57,NA,person balancing on their toes,6977,tangram,far,tangram-48.jpg,D1.jpg,NA,35,346437,kid,5,NA,30,balanceontheirtoe
NA,kid_57,57,NA,blue car,6133.6,familiar,close,sedan.jpg,sportscar.jpg,NA,37,365870,kid,5,NA,8,bluecar
NA,kid_57,57,NA,dog with black back,11220.4,familiar,close,germanshepherd.jpg,pug.jpg,NA,38,377596,kid,5,NA,19,dogwithblackback
NA,kid_57,57,NA,table with no chairs,6768.1,familiar,close,diningtable.jpg,picnictable.jpg,NA,39,384871,kid,5,NA,20,tablewithnochair
NA,kid_57,57,NA,bear thats brown,7255.2,familiar,close,grizzlybear.jpg,polarbear.jpg,NA,40,392634,kid,5,NA,16,bearthatsbrown
NA,kid_57,57,NA,bird,4864.3,familiar,close,sparrow.jpg,eagle.jpg,NA,41,398005,kid,5,NA,4,bird
NA,kid_57,57,NA,blue shirt,11923.5,familiar,close,poloshirt.jpg,hawaiishirt.jpg,NA,42,410434,kid,5,NA,10,blueshirt
NA,kid_57,57,NA,candy,14535.7,familiar,close,jellybeans.jpg,gummybears.jpg,NA,43,425476,kid,5,NA,5,candy
NA,kid_57,57,NA,goldfish,8878.5,familiar,close,goldfish.jpg,swordfish.jpg,NA,44,434864,kid,5,NA,8,goldfish
NA,kid_57,57,NA,a person balancing,14420.4,tangram,close,tangram-48.jpg,tangram-187.jpg,NA,46,463464,kid,5,NA,18,balance
NA,kid_57,57,NA,person walking,7175.9,tangram,close,B1.jpg,P1.jpg,NA,47,471146,kid,5,NA,14,walk
NA,kid_57,57,NA,person running fast,11090,tangram,close,tangram-55.jpg,N1.jpg,NA,48,482744,kid,5,NA,19,runfast
NA,kid_57,57,NA,person running,9398,tangram,close,tangram-67.jpg,tangram-32.jpg,NA,49,492647,kid,5,NA,14,run
NA,kid_57,57,NA,person kicking on one foot,10295,tangram,close,tangram-164.jpg,tangram-183.jpg,NA,50,503450,kid,5,NA,26,kickononefoot
NA,kid_57,57,NA,person with their arms open,17905,tangram,close,tangram-90.jpg,tangram-81.jpg,NA,51,521858,kid,5,NA,27,withtheirarmopen
NA,kid_57,57,NA,person walking with hands behind their head,15784.9,tangram,close,A2.jpg,tangram-99.jpg,NA,52,538146,kid,5,NA,43,walkwithhandbehindtheirhead
NA,kid_57,57,NA,person pointing,7818.5,tangram,close,H1.jpg,I1.jpg,NA,53,546473,kid,5,NA,15,point
NA,kid_57,57,NA,m&ms,7880.1,familiar,check,mnms.jpg,gummybears.jpg,NA,55,598910,kid,5,0,4,mnms
NA,kid_57,57,NA,bear,7721.5,familiar,check,firetruck.jpg,ambulance.jpg,NA,56,607135,kid,5,1,4,bear
NA,kid_57,57,NA,red flower,7273.9,familiar,check,rose.jpg,daisy.jpg,NA,57,614910,kid,5,0,10,redflower
NA,kid_57,57,NA,polar bear,6780.2,familiar,check,polarbear.jpg,grizzlybear.jpg,NA,58,622196,kid,5,0,10,polarbear
NA,kid_57,57,NA,table,7323.1,familiar,check,pug.jpg,rabbit.jpg,NA,59,630026,kid,5,1,5,table
NA,kid_57,57,NA,dog,11422.4,familiar,check,husky.jpg,dalmatian.jpg,NA,60,641953,kid,5,1,3,dog
NA,kid_57,57,NA,cup,7219.8,familiar,check,apple.jpg,pear.jpg,NA,61,649677,kid,5,1,3,cup
NA,kid_57,57,NA,bird,10595.4,familiar,check,parrot.jpg,pigeon.jpg,NA,62,660777,kid,5,0,4,bird
NA,kid_57,57,NA,shirt,7044,familiar,check,dressshirt.jpg,campshirt.jpg,NA,63,668328,kid,5,1,5,shirt
NA,kid_58,58,NA,bear,5486,familiar,far,grizzlybear.jpg,lion.jpg,NA,19,985506,kid,4,NA,4,bear
NA,kid_58,58,NA,dog,6011,familiar,far,germanshepherd.jpg,cow.jpg,NA,20,992027,kid,4,NA,3,dog
NA,kid_58,58,NA,bird,3376.6,familiar,far,sparrow.jpg,squirrel.jpg,NA,21,995907,kid,4,NA,4,bird
NA,kid_58,58,NA,shirt,3318.8,familiar,far,poloshirt.jpg,dress.jpg,NA,22,999730,kid,4,NA,5,shirt
NA,kid_58,58,NA,fish,3462.7,familiar,far,goldfish.jpg,iguana.jpg,NA,23,1003699,kid,4,NA,4,fish
NA,kid_58,58,NA,little balls,8270.6,familiar,far,jellybeans.jpg,pretzels.jpg,NA,24,1012474,kid,4,NA,12,littleball
NA,kid_58,58,NA,car,4370.9,familiar,far,sedan.jpg,firetruck.jpg,NA,25,1017351,kid,4,NA,3,car
NA,kid_58,58,NA,table,3747.1,familiar,far,diningtable.jpg,wardrobe.jpg,NA,26,1021604,kid,4,NA,5,table
NA,kid_58,58,NA,shapes,18277.4,tangram,close,tangram-90.jpg,tangram-81.jpg,NA,28,1054266,kid,4,NA,6,shape
NA,kid_58,58,NA,another shape,24713.2,tangram,close,tangram-164.jpg,tangram-183.jpg,NA,29,1079486,kid,4,NA,13,anothershape
NA,kid_58,58,NA,diamond,33158.1,tangram,close,tangram-55.jpg,N1.jpg,NA,30,1113149,kid,4,NA,7,diamond
NA,kid_58,58,NA,walking,13305.4,tangram,close,B1.jpg,P1.jpg,NA,31,1126961,kid,4,NA,7,walk
NA,kid_58,58,NA,running,5728,tangram,close,tangram-67.jpg,tangram-32.jpg,NA,32,1133195,kid,4,NA,7,run
NA,kid_58,58,NA,carrying something,6865.9,tangram,close,H1.jpg,I1.jpg,NA,33,1140566,kid,4,NA,18,carrysomething
NA,kid_58,58,NA,one foot jumping,18403.2,tangram,close,tangram-48.jpg,tangram-187.jpg,NA,34,1159473,kid,4,NA,16,onefootjump
NA,kid_58,58,NA,walking,8979.3,tangram,close,A2.jpg,tangram-99.jpg,NA,35,1168961,kid,4,NA,7,walk
NA,kid_58,58,NA,different shirt,8636.6,familiar,close,poloshirt.jpg,hawaiishirt.jpg,NA,37,1191435,kid,4,NA,15,differentshirt
NA,kid_58,58,NA,table,6666.8,familiar,close,diningtable.jpg,picnictable.jpg,NA,38,1198607,kid,4,NA,5,table
NA,kid_58,58,NA,car,4736.1,familiar,close,sedan.jpg,sportscar.jpg,NA,39,1203849,kid,4,NA,3,car
NA,kid_58,58,NA,fish,9861.5,familiar,close,goldfish.jpg,swordfish.jpg,NA,40,1214218,kid,4,NA,4,fish
NA,kid_58,58,NA,bird,4805.1,familiar,close,sparrow.jpg,eagle.jpg,NA,41,1219531,kid,4,NA,4,bird
NA,kid_58,58,NA,dog,11278.8,familiar,close,germanshepherd.jpg,pug.jpg,NA,42,1231315,kid,4,NA,3,dog
NA,kid_58,58,NA,different bear,9254.1,familiar,close,grizzlybear.jpg,polarbear.jpg,NA,43,1241074,kid,4,NA,14,differentbear
NA,kid_58,58,NA,small balls,7243,familiar,close,jellybeans.jpg,gummybears.jpg,NA,44,1248824,kid,4,NA,11,smallball
NA,kid_58,58,NA,walking,5199.9,tangram,far,A2.jpg,C1.jpg,NA,46,1268959,kid,4,NA,7,walk
NA,kid_58,58,NA,running,3976.8,tangram,far,tangram-90.jpg,tangram-120.jpg,NA,47,1273448,kid,4,NA,7,run
NA,kid_58,58,NA,chasing,6672.5,tangram,far,tangram-55.jpg,tangram-143.jpg,NA,48,1280625,kid,4,NA,7,chase
NA,kid_58,58,NA,doing one foot,23233.3,tangram,far,tangram-48.jpg,D1.jpg,NA,49,1304366,kid,4,NA,14,doonefoot
NA,kid_58,58,NA,pointing,6175.5,tangram,far,H1.jpg,tangram-8.jpg,NA,50,1311048,kid,4,NA,8,point
NA,kid_58,58,NA,walking,3418.9,tangram,far,B1.jpg,tangram-4.jpg,NA,51,1314973,kid,4,NA,7,walk
NA,kid_58,58,NA,jumping on one foot,9339.4,tangram,far,tangram-164.jpg,tangram-64.jpg,NA,52,1324817,kid,4,NA,19,jumpononefoot
NA,kid_58,58,NA,running,5140.6,tangram,far,tangram-67.jpg,G1.jpg,NA,53,1330464,kid,4,NA,7,run
NA,kid_58,58,NA,m&ms,28446.9,familiar,check,mnms.jpg,gummybears.jpg,NA,55,1406352,kid,4,1,4,mnms
NA,kid_58,58,NA,table,12927.6,familiar,check,pug.jpg,rabbit.jpg,NA,56,1419785,kid,4,1,5,table
NA,kid_58,58,NA,cup,7809.3,familiar,check,apple.jpg,pear.jpg,NA,57,1428097,kid,4,1,3,cup
NA,kid_58,58,NA,red flower,7583.6,familiar,check,rose.jpg,daisy.jpg,NA,58,1436187,kid,4,0,10,redflower
NA,kid_58,58,NA,shirt,12313.6,familiar,check,dressshirt.jpg,campshirt.jpg,NA,59,1449006,kid,4,0,5,shirt
NA,kid_58,58,NA,bear,7427.4,familiar,check,firetruck.jpg,ambulance.jpg,NA,60,1456937,kid,4,1,4,bear
NA,kid_58,58,NA,dog,8722.7,familiar,check,husky.jpg,dalmatian.jpg,NA,61,1466163,kid,4,0,3,dog
NA,kid_58,58,NA,polar bear,7126.4,familiar,check,polarbear.jpg,grizzlybear.jpg,NA,62,1473793,kid,4,0,10,polarbear
NA,kid_58,58,NA,bird,6897.5,familiar,check,parrot.jpg,pigeon.jpg,NA,63,1481192,kid,4,1,4,bird
NA,kid_59,59,NA,jellybeans,5110.2,familiar,far,jellybeans.jpg,pretzels.jpg,NA,19,343076,kid,8,NA,10,jellybeans
NA,kid_59,59,NA,car,3576,familiar,far,sedan.jpg,firetruck.jpg,NA,20,347162,kid,8,NA,3,car
NA,kid_59,59,NA,bear,6663.4,familiar,far,grizzlybear.jpg,lion.jpg,NA,21,354334,kid,8,NA,4,bear
NA,kid_59,59,NA,blue shirt,4600.6,familiar,far,poloshirt.jpg,dress.jpg,NA,22,359438,kid,8,NA,10,blueshirt
NA,kid_59,59,NA,dog or wolf,7378.7,familiar,far,germanshepherd.jpg,cow.jpg,NA,23,367323,kid,8,NA,11,dogorwolf
NA,kid_59,59,NA,fish,4483.6,familiar,far,goldfish.jpg,iguana.jpg,NA,24,372317,kid,8,NA,4,fish
NA,kid_59,59,NA,bird,6492.2,familiar,far,sparrow.jpg,squirrel.jpg,NA,25,379317,kid,8,NA,4,bird
NA,kid_59,59,NA,table,7624.4,familiar,far,diningtable.jpg,wardrobe.jpg,NA,26,387446,kid,8,NA,5,table
NA,kid_59,59,NA,person running,7100.3,tangram,far,tangram-67.jpg,G1.jpg,NA,28,407408,kid,8,NA,14,run
NA,kid_59,59,NA,person doing karate kick,10737.8,tangram,far,tangram-164.jpg,tangram-64.jpg,NA,29,418649,kid,8,NA,24,dokaratekick
NA,kid_59,59,NA,person kicking straight across,8761.9,tangram,far,tangram-48.jpg,D1.jpg,NA,30,427918,kid,8,NA,30,kickstraightacross
NA,kid_59,59,NA,somebody walking,5234,tangram,far,B1.jpg,tangram-4.jpg,NA,31,433658,kid,8,NA,16,walk
NA,kid_59,59,NA,somebody jumping to the left,10114.4,tangram,far,tangram-55.jpg,tangram-143.jpg,NA,32,444279,kid,8,NA,28,jumptotheleave
NA,kid_59,59,NA,person walking,13468.2,tangram,far,tangram-90.jpg,tangram-120.jpg,NA,33,458254,kid,8,NA,14,walk
NA,kid_59,59,NA,person holding something,10200.7,tangram,far,H1.jpg,tangram-8.jpg,NA,34,468964,kid,8,NA,24,holdsomething
NA,kid_59,59,NA,person running,6798.6,tangram,far,A2.jpg,C1.jpg,NA,35,476269,kid,8,NA,14,run
NA,kid_59,59,NA,wolf,8556.9,familiar,close,germanshepherd.jpg,pug.jpg,NA,37,497932,kid,8,NA,4,wolf
NA,kid_59,59,NA,blue shirt,20435,familiar,close,poloshirt.jpg,hawaiishirt.jpg,NA,38,518876,kid,8,NA,10,blueshirt
NA,kid_59,59,NA,blue car,5010.3,familiar,close,sedan.jpg,sportscar.jpg,NA,39,524392,kid,8,NA,8,bluecar
NA,kid_59,59,NA,bear,8075.2,familiar,close,grizzlybear.jpg,polarbear.jpg,NA,40,532975,kid,8,NA,4,bear
NA,kid_59,59,NA,bird,4857.8,familiar,close,sparrow.jpg,eagle.jpg,NA,41,538338,kid,8,NA,4,bird
NA,kid_59,59,NA,jellybeans,5128.5,familiar,close,jellybeans.jpg,gummybears.jpg,NA,42,543974,kid,8,NA,10,jellybeans
NA,kid_59,59,NA,long table,11315.8,familiar,close,diningtable.jpg,picnictable.jpg,NA,43,555793,kid,8,NA,10,longtable
NA,kid_59,59,NA,fish,5911.5,familiar,close,goldfish.jpg,swordfish.jpg,NA,44,562208,kid,8,NA,4,fish
NA,kid_59,59,NA,somebody running,6387.1,tangram,close,tangram-90.jpg,tangram-81.jpg,NA,46,581321,kid,8,NA,16,run
NA,kid_59,59,NA,somebody doing the splits in the air,8725.8,tangram,close,tangram-67.jpg,tangram-32.jpg,NA,47,590551,kid,8,NA,36,dothesplitintheair
NA,kid_59,59,NA,somebody jumping to the right,12251.4,tangram,close,tangram-55.jpg,N1.jpg,NA,48,603307,kid,8,NA,29,jumptotheright
NA,kid_59,59,NA,somebody kicking straight to the left,10800.8,tangram,close,tangram-48.jpg,tangram-187.jpg,NA,49,614611,kid,8,NA,37,kickstraighttotheleave
NA,kid_59,59,NA,somebody walking left,9268.6,tangram,close,B1.jpg,P1.jpg,NA,50,624383,kid,8,NA,21,walkleave
NA,kid_59,59,NA,somebody running left,7200.7,tangram,close,A2.jpg,tangram-99.jpg,NA,51,632091,kid,8,NA,21,runleave
NA,kid_59,59,NA,somebody holding something,8122.6,tangram,close,H1.jpg,I1.jpg,NA,52,640717,kid,8,NA,26,holdsomething
NA,kid_59,59,NA,somebody kicking right,8925.2,tangram,close,tangram-164.jpg,tangram-183.jpg,NA,53,650150,kid,8,NA,22,kickright
NA,kid_59,59,NA,cup,7872.1,familiar,check,apple.jpg,pear.jpg,NA,55,705469,kid,8,1,3,cup
NA,kid_59,59,NA,red flower,6035.8,familiar,check,rose.jpg,daisy.jpg,NA,56,712007,kid,8,0,10,redflower
NA,kid_59,59,NA,shirt,6918,familiar,check,dressshirt.jpg,campshirt.jpg,NA,57,719431,kid,8,1,5,shirt
NA,kid_59,59,NA,dog,8864.7,familiar,check,husky.jpg,dalmatian.jpg,NA,58,728800,kid,8,1,3,dog
NA,kid_59,59,NA,m&ms,7517.5,familiar,check,mnms.jpg,gummybears.jpg,NA,59,736823,kid,8,0,4,mnms
NA,kid_59,59,NA,table,7455.5,familiar,check,pug.jpg,rabbit.jpg,NA,60,744781,kid,8,1,5,table
NA,kid_59,59,NA,bear,10535.7,familiar,check,firetruck.jpg,ambulance.jpg,NA,61,755818,kid,8,1,4,bear
NA,kid_59,59,NA,bird,10350.3,familiar,check,parrot.jpg,pigeon.jpg,NA,62,766670,kid,8,0,4,bird
NA,kid_59,59,NA,polar bear,6783.4,familiar,check,polarbear.jpg,grizzlybear.jpg,NA,63,773957,kid,8,0,10,polarbear
NA,kid_60,60,NA,dog,16519.4,familiar,far,germanshepherd.jpg,cow.jpg,NA,19,1213143188,kid,8,NA,3,dog
NA,kid_60,60,NA,jellybeans,8218.9,familiar,far,jellybeans.jpg,pretzels.jpg,NA,20,1213151911,kid,8,NA,10,jellybeans
NA,kid_60,60,NA,blue shirt,5230.4,familiar,far,poloshirt.jpg,dress.jpg,NA,21,1213157649,kid,8,NA,10,blueshirt
NA,kid_60,60,NA,orange fish,4941.4,familiar,far,goldfish.jpg,iguana.jpg,NA,22,1213163094,kid,8,NA,11,orangefish
NA,kid_60,60,NA,bird,7179.7,familiar,far,sparrow.jpg,squirrel.jpg,NA,23,1213170781,kid,8,NA,4,bird
NA,kid_60,60,NA,bear,6584.1,familiar,far,grizzlybear.jpg,lion.jpg,NA,24,1213177871,kid,8,NA,4,bear
NA,kid_60,60,NA,table,6604.9,familiar,far,diningtable.jpg,wardrobe.jpg,NA,25,1213184979,kid,8,NA,5,table
NA,kid_60,60,NA,blue car,5344.5,familiar,far,sedan.jpg,firetruck.jpg,NA,26,1213190834,kid,8,NA,8,bluecar
NA,kid_60,60,NA,running person,15448.2,tangram,close,tangram-55.jpg,N1.jpg,NA,28,1213218924,kid,8,NA,14,run
NA,kid_60,60,NA,dancing person,19411.7,tangram,close,A2.jpg,tangram-99.jpg,NA,29,1213238841,kid,8,NA,14,dance
NA,kid_60,60,NA,dont know,47837.7,tangram,close,B1.jpg,P1.jpg,NA,30,1213287186,kid,8,NA,9,doknow
NA,kid_60,60,NA,person with their arms out,12533.5,tangram,close,H1.jpg,I1.jpg,NA,31,1213300228,kid,8,NA,26,withtheirarmout
NA,kid_60,60,NA,running person,8396.5,tangram,close,tangram-67.jpg,tangram-32.jpg,NA,32,1213309132,kid,8,NA,14,run
NA,kid_60,60,NA,dancing person,8448.2,tangram,close,tangram-90.jpg,tangram-81.jpg,NA,33,1213318088,kid,8,NA,14,dance
NA,kid_60,60,NA,person doing gymnastics,14630.7,tangram,close,tangram-48.jpg,tangram-187.jpg,NA,34,1213333226,kid,8,NA,23,dogymnastic
NA,kid_60,60,NA,person that is sitting,41186.9,tangram,close,tangram-164.jpg,tangram-183.jpg,NA,35,1213374918,kid,8,NA,22,sit
NA,kid_60,60,NA,blue shirt,5867.5,familiar,close,poloshirt.jpg,hawaiishirt.jpg,NA,37,1213395038,kid,8,NA,10,blueshirt
NA,kid_60,60,NA,table,5525.9,familiar,close,diningtable.jpg,picnictable.jpg,NA,38,1213401071,kid,8,NA,5,table
NA,kid_60,60,NA,brown bear,5068.9,familiar,close,grizzlybear.jpg,polarbear.jpg,NA,39,1213406646,kid,8,NA,10,brownbear
NA,kid_60,60,NA,orange fish,5258.6,familiar,close,goldfish.jpg,swordfish.jpg,NA,40,1213412409,kid,8,NA,11,orangefish
NA,kid_60,60,NA,bird,5390.2,familiar,close,sparrow.jpg,eagle.jpg,NA,41,1213418306,kid,8,NA,4,bird
NA,kid_60,60,NA,blue car,4019.5,familiar,close,sedan.jpg,sportscar.jpg,NA,42,1213422829,kid,8,NA,8,bluecar
NA,kid_60,60,NA,dog,9234.6,familiar,close,germanshepherd.jpg,pug.jpg,NA,43,1213432572,kid,8,NA,3,dog
NA,kid_60,60,NA,jellybeans,4593.7,familiar,close,jellybeans.jpg,gummybears.jpg,NA,44,1213437674,kid,8,NA,10,jellybeans
NA,kid_60,60,NA,running person,6214.2,tangram,far,tangram-55.jpg,tangram-143.jpg,NA,46,1213456645,kid,8,NA,14,run
NA,kid_60,60,NA,dancing person,5189.4,tangram,far,tangram-90.jpg,tangram-120.jpg,NA,47,1213462339,kid,8,NA,14,dance
NA,kid_60,60,NA,dancing person,11586.6,tangram,far,tangram-67.jpg,G1.jpg,NA,48,1213474435,kid,8,NA,14,dance
NA,kid_60,60,NA,person that is throwing something,21636,tangram,far,A2.jpg,C1.jpg,NA,49,1213496579,kid,8,NA,33,throwsomething
NA,kid_60,60,NA,person that is sitting,7754.5,tangram,far,tangram-164.jpg,tangram-64.jpg,NA,50,1213504841,kid,8,NA,22,sit
NA,kid_60,60,NA,person that is walking,9979,tangram,far,B1.jpg,tangram-4.jpg,NA,51,1213515327,kid,8,NA,22,walk
NA,kid_60,60,NA,person that is kicking,9783.1,tangram,far,tangram-48.jpg,D1.jpg,NA,52,1213525614,kid,8,NA,22,kick
NA,kid_60,60,NA,person with their arms out,11861,tangram,far,H1.jpg,tangram-8.jpg,NA,53,1213537981,kid,8,NA,26,withtheirarmout
NA,kid_60,60,NA,shirt,18048,familiar,check,dressshirt.jpg,campshirt.jpg,NA,55,1213604409,kid,8,1,5,shirt
NA,kid_60,60,NA,cup,6963.1,familiar,check,apple.jpg,pear.jpg,NA,56,1213611876,kid,8,1,3,cup
NA,kid_60,60,NA,table,6788.3,familiar,check,pug.jpg,rabbit.jpg,NA,57,1213619170,kid,8,1,5,table
NA,kid_60,60,NA,bear,7548,familiar,check,firetruck.jpg,ambulance.jpg,NA,58,1213627220,kid,8,1,4,bear
NA,kid_60,60,NA,bird,12467.3,familiar,check,parrot.jpg,pigeon.jpg,NA,59,1213640192,kid,8,1,4,bird
NA,kid_60,60,NA,m&ms,8206.1,familiar,check,mnms.jpg,gummybears.jpg,NA,60,1213648902,kid,8,0,4,mnms
NA,kid_60,60,NA,dog,7108.6,familiar,check,husky.jpg,dalmatian.jpg,NA,61,1213656516,kid,8,1,3,dog
NA,kid_60,60,NA,red flower,6848.7,familiar,check,rose.jpg,daisy.jpg,NA,62,1213663869,kid,8,0,10,redflower
NA,kid_60,60,NA,polar bear,7341,familiar,check,polarbear.jpg,grizzlybear.jpg,NA,63,1213671716,kid,8,0,10,polarbear
NA,kid_61,61,NA,gray bird,10110,familiar,far,sparrow.jpg,squirrel.jpg,NA,19,267547,kid,8,NA,9,graybird
NA,kid_61,61,NA,brown bear,7410.3,familiar,far,grizzlybear.jpg,lion.jpg,NA,20,275462,kid,8,NA,10,brownbear
NA,kid_61,61,NA,brown desk,6054.5,familiar,far,diningtable.jpg,wardrobe.jpg,NA,21,282021,kid,8,NA,10,browndesk
NA,kid_61,61,NA,colorful jellybeans,11595.6,familiar,far,jellybeans.jpg,pretzels.jpg,NA,22,294120,kid,8,NA,19,colorfuljellybeans
NA,kid_61,61,NA,blue shirt,5728.3,familiar,far,poloshirt.jpg,dress.jpg,NA,23,300353,kid,8,NA,10,blueshirt
NA,kid_61,61,NA,goldfish,4744.8,familiar,far,goldfish.jpg,iguana.jpg,NA,24,305605,kid,8,NA,8,goldfish
NA,kid_61,61,NA,wolf,4682.1,familiar,far,germanshepherd.jpg,cow.jpg,NA,25,310791,kid,8,NA,4,wolf
NA,kid_61,61,NA,blue car,5458,familiar,far,sedan.jpg,firetruck.jpg,NA,26,316757,kid,8,NA,8,bluecar
NA,kid_61,61,NA,person running with both hands behind back,21348.3,tangram,close,tangram-55.jpg,N1.jpg,NA,28,353568,kid,8,NA,42,runwithbothhandbehindback
NA,kid_61,61,NA,someone sad walking,8348.6,tangram,close,B1.jpg,P1.jpg,NA,29,362424,kid,8,NA,19,sadwalk
NA,kid_61,61,NA,someone karate kicking,11617.9,tangram,close,tangram-48.jpg,tangram-187.jpg,NA,30,374548,kid,8,NA,22,karatekick
NA,kid_61,61,NA,someone running,7767.2,tangram,close,tangram-67.jpg,tangram-32.jpg,NA,31,382819,kid,8,NA,15,run
NA,kid_61,61,NA,a woman walking,6335,tangram,close,A2.jpg,tangram-99.jpg,NA,32,389658,kid,8,NA,15,awomanwalk
NA,kid_61,61,NA,someone with both hands up running,13314.1,tangram,close,tangram-90.jpg,tangram-81.jpg,NA,33,403480,kid,8,NA,34,withbothhanduprun
NA,kid_61,61,NA,someone kicking,5894.6,tangram,close,tangram-164.jpg,tangram-183.jpg,NA,34,409881,kid,8,NA,15,kick
NA,kid_61,61,NA,someone holding something close to them,13058,tangram,close,H1.jpg,I1.jpg,NA,35,423446,kid,8,NA,39,holdsomethingclosetothem
NA,kid_61,61,NA,brown desk,5225,familiar,close,diningtable.jpg,picnictable.jpg,NA,37,436332,kid,8,NA,10,browndesk
NA,kid_61,61,NA,colorful jellybeans,6182.7,familiar,close,jellybeans.jpg,gummybears.jpg,NA,38,443022,kid,8,NA,19,colorfuljellybeans
NA,kid_61,61,NA,brown bear,3466.5,familiar,close,grizzlybear.jpg,polarbear.jpg,NA,39,446996,kid,8,NA,10,brownbear
NA,kid_61,61,NA,gray bird,5266.5,familiar,close,sparrow.jpg,eagle.jpg,NA,40,452770,kid,8,NA,9,graybird
NA,kid_61,61,NA,blue car,3999.5,familiar,close,sedan.jpg,sportscar.jpg,NA,41,457272,kid,8,NA,8,bluecar
NA,kid_61,61,NA,blue shirt,4958.9,familiar,close,poloshirt.jpg,hawaiishirt.jpg,NA,42,462738,kid,8,NA,10,blueshirt
NA,kid_61,61,NA,goldfish,4075.8,familiar,close,goldfish.jpg,swordfish.jpg,NA,43,467319,kid,8,NA,8,goldfish
NA,kid_61,61,NA,wolf,3862,familiar,close,germanshepherd.jpg,pug.jpg,NA,44,471685,kid,8,NA,4,wolf
NA,kid_61,61,NA,woman walking,5477.8,tangram,far,A2.jpg,C1.jpg,NA,46,490121,kid,8,NA,13,womanwalk
NA,kid_61,61,NA,someone with both hands up,8655.8,tangram,far,tangram-90.jpg,tangram-120.jpg,NA,47,499283,kid,8,NA,26,withbothhandup
NA,kid_61,61,NA,sad person walking,5657.2,tangram,far,B1.jpg,tangram-4.jpg,NA,48,505447,kid,8,NA,18,sadwalk
NA,kid_61,61,NA,someone running,5051.2,tangram,far,tangram-55.jpg,tangram-143.jpg,NA,49,511005,kid,8,NA,15,run
NA,kid_61,61,NA,someone holding something close,8208.3,tangram,far,H1.jpg,tangram-8.jpg,NA,50,519717,kid,8,NA,31,holdsomethingclose
NA,kid_61,61,NA,someone kicking,4896.5,tangram,far,tangram-48.jpg,D1.jpg,NA,51,525121,kid,8,NA,15,kick
NA,kid_61,61,NA,someone running,4986.8,tangram,far,tangram-67.jpg,G1.jpg,NA,52,530615,kid,8,NA,15,run
NA,kid_61,61,NA,someone kicking up in the air,10152.8,tangram,far,tangram-164.jpg,tangram-64.jpg,NA,53,541274,kid,8,NA,29,kickupintheair
NA,kid_61,61,NA,bird,15201.8,familiar,check,parrot.jpg,pigeon.jpg,NA,55,604829,kid,8,0,4,bird
NA,kid_61,61,NA,red flower,5816.8,familiar,check,rose.jpg,daisy.jpg,NA,56,611151,kid,8,0,10,redflower
NA,kid_61,61,NA,polar bear,5815.3,familiar,check,polarbear.jpg,grizzlybear.jpg,NA,57,617469,kid,8,0,10,polarbear
NA,kid_61,61,NA,shirt,8785.2,familiar,check,dressshirt.jpg,campshirt.jpg,NA,58,626759,kid,8,0,5,shirt
NA,kid_61,61,NA,dog,5968.6,familiar,check,husky.jpg,dalmatian.jpg,NA,59,633232,kid,8,0,3,dog
NA,kid_61,61,NA,bear,5823.7,familiar,check,firetruck.jpg,ambulance.jpg,NA,60,639560,kid,8,1,4,bear
NA,kid_61,61,NA,m&ms,5696.6,familiar,check,mnms.jpg,gummybears.jpg,NA,61,645760,kid,8,0,4,mnms
NA,kid_61,61,NA,table,5917.3,familiar,check,pug.jpg,rabbit.jpg,NA,62,652181,kid,8,1,5,table
NA,kid_61,61,NA,cup,5825.9,familiar,check,apple.jpg,pear.jpg,NA,63,658513,kid,8,1,3,cup
