iterationName,id,wID,aID,utterance,rt,target_type,competitor_type,target,foil,trial_type,trial_index,time_elapsed,age_group,age,button_pressed,utt_length,clean_utt,informativity
NA,kid_1,1,NA,fish,6719.5,familiar,close,goldfish.jpg,swordfish.jpg,NA,19,92638,kid,5,NA,4,fish,0
NA,kid_1,1,NA,shirt,5152.5,familiar,close,poloshirt.jpg,hawaiishirt.jpg,NA,20,98298,kid,5,NA,5,shirt,0
NA,kid_1,1,NA,bird,5200.1,familiar,close,sparrow.jpg,eagle.jpg,NA,21,104004,kid,5,NA,4,bird,0
NA,kid_1,1,NA,jellybeans,8363.4,familiar,close,jellybeans.jpg,gummybears.jpg,NA,22,112874,kid,5,NA,10,jellybeans,1
NA,kid_1,1,NA,table,5792.4,familiar,close,diningtable.jpg,picnictable.jpg,NA,23,119171,kid,5,NA,5,table,0
NA,kid_1,1,NA,dog,5484.9,familiar,close,germanshepherd.jpg,pug.jpg,NA,24,125162,kid,5,NA,3,dog,0
NA,kid_1,1,NA,car,4577.6,familiar,close,sedan.jpg,sportscar.jpg,NA,25,130247,kid,5,NA,3,car,0
NA,kid_1,1,NA,bear,8932.2,familiar,close,grizzlybear.jpg,polarbear.jpg,NA,26,139688,kid,5,NA,4,bear,0
NA,kid_1,1,NA,black walking in the wall,96280.9,tangram,close,tangram-164.jpg,tangram-183.jpg,NA,28,249267,kid,5,NA,25,blackwalkinthewall,
NA,kid_1,1,NA,walking,10004.1,tangram,close,tangram-67.jpg,tangram-32.jpg,NA,29,259771,kid,5,NA,7,walk,
NA,kid_1,1,NA,doing a footprint,26560.7,tangram,close,tangram-48.jpg,tangram-187.jpg,NA,30,286834,kid,5,NA,17,footprint,
NA,kid_1,1,NA,walking on something,30407.8,tangram,close,tangram-55.jpg,N1.jpg,NA,31,317749,kid,5,NA,20,walk,
NA,kid_1,1,NA,walking,9567,tangram,close,tangram-90.jpg,tangram-81.jpg,NA,32,327822,kid,5,NA,7,walk,
NA,kid_1,1,NA,washing,46577.3,tangram,close,H1.jpg,I1.jpg,NA,33,374908,kid,5,NA,7,wash,
NA,kid_1,1,NA,going to fall,17347.4,tangram,close,B1.jpg,P1.jpg,NA,34,392764,kid,5,NA,13,fall,
NA,kid_1,1,NA,going to,55133.6,tangram,close,A2.jpg,tangram-99.jpg,NA,35,448406,kid,5,NA,8,go,
NA,kid_1,1,NA,fish,5601.8,familiar,far,goldfish.jpg,iguana.jpg,NA,37,478667,kid,5,NA,4,fish,1
NA,kid_1,1,NA,dog,23695.4,familiar,far,germanshepherd.jpg,cow.jpg,NA,38,502873,kid,5,NA,3,dog,1
NA,kid_1,1,NA,bear,5447.2,familiar,far,grizzlybear.jpg,lion.jpg,NA,39,508825,kid,5,NA,4,bear,1
NA,kid_1,1,NA,shirt,5207.7,familiar,far,poloshirt.jpg,dress.jpg,NA,40,514540,kid,5,NA,5,shirt,1
NA,kid_1,1,NA,jellybeans,11175.7,familiar,far,jellybeans.jpg,pretzels.jpg,NA,41,526224,kid,5,NA,10,jellybeans,1
NA,kid_1,1,NA,car,5117.2,familiar,far,sedan.jpg,firetruck.jpg,NA,42,531849,kid,5,NA,3,car,1
NA,kid_1,1,NA,bird,5541.7,familiar,far,sparrow.jpg,squirrel.jpg,NA,43,537897,kid,5,NA,4,bird,1
NA,kid_1,1,NA,table,6022.9,familiar,far,diningtable.jpg,wardrobe.jpg,NA,44,544425,kid,5,NA,5,table,1
NA,kid_1,1,NA,going to a place,47282.9,tangram,far,A2.jpg,C1.jpg,NA,46,605936,kid,5,NA,16,go,
NA,kid_1,1,NA,going again,29029,tangram,far,B1.jpg,tangram-4.jpg,NA,47,635472,kid,5,NA,11,go,
NA,kid_1,1,NA,doing handprint,17157.1,tangram,far,tangram-90.jpg,tangram-120.jpg,NA,48,653136,kid,5,NA,15,handprint,
NA,kid_1,1,NA,walking again,13538.1,tangram,far,tangram-164.jpg,tangram-64.jpg,NA,49,667179,kid,5,NA,13,walk,
NA,kid_1,1,NA,going to help us,26107.9,tangram,far,tangram-55.jpg,tangram-143.jpg,NA,50,693795,kid,5,NA,16,help,
NA,kid_1,1,NA,going to tour,33441.8,tangram,far,tangram-67.jpg,G1.jpg,NA,51,727745,kid,5,NA,13,tour,
NA,kid_1,1,NA,going to walk again,34816.7,tangram,far,tangram-48.jpg,D1.jpg,NA,52,763069,kid,5,NA,19,walk,
NA,kid_1,1,NA,wash,17034.3,tangram,far,H1.jpg,tangram-8.jpg,NA,53,780612,kid,5,NA,4,wash,
NA,kid_1,1,NA,dog,9427.2,familiar,check,husky.jpg,dalmatian.jpg,NA,55,835981,kid,5,1,3,dog,
NA,kid_1,1,NA,polar bear,11236,familiar,check,polarbear.jpg,grizzlybear.jpg,NA,56,847722,kid,5,0,10,polarbear,
NA,kid_1,1,NA,table,10234.4,familiar,check,pug.jpg,rabbit.jpg,NA,57,858461,kid,5,1,5,table,
NA,kid_1,1,NA,bear,7096.2,familiar,check,firetruck.jpg,ambulance.jpg,NA,58,866062,kid,5,1,4,bear,
NA,kid_1,1,NA,shirt,7434.2,familiar,check,dressshirt.jpg,campshirt.jpg,NA,59,874005,kid,5,0,5,shirt,
NA,kid_1,1,NA,m&ms,7292.9,familiar,check,mnms.jpg,gummybears.jpg,NA,60,881804,kid,5,0,4,mnms,
NA,kid_1,1,NA,red flower,10462.5,familiar,check,rose.jpg,daisy.jpg,NA,61,892770,kid,5,0,10,redflower,
NA,kid_1,1,NA,bird,7251,familiar,check,parrot.jpg,pigeon.jpg,NA,62,900526,kid,5,0,4,bird,
NA,kid_1,1,NA,cup,6834.4,familiar,check,apple.jpg,pear.jpg,NA,63,907868,kid,5,1,3,cup,
NA,kid_10,10,NA,fish,6453.1,familiar,far,goldfish.jpg,iguana.jpg,NA,19,337905,kid,7,NA,4,fish,1
NA,kid_10,10,NA,bear,5291,familiar,far,grizzlybear.jpg,lion.jpg,NA,20,343703,kid,7,NA,4,bear,1
NA,kid_10,10,NA,jellybeans,9131,familiar,far,jellybeans.jpg,pretzels.jpg,NA,21,353339,kid,7,NA,10,jellybeans,1
NA,kid_10,10,NA,bird,5517.2,familiar,far,sparrow.jpg,squirrel.jpg,NA,22,359361,kid,7,NA,4,bird,1
NA,kid_10,10,NA,shirt,14903.8,familiar,far,poloshirt.jpg,dress.jpg,NA,23,374771,kid,7,NA,5,shirt,1
NA,kid_10,10,NA,car,5066.5,familiar,far,sedan.jpg,firetruck.jpg,NA,24,380343,kid,7,NA,3,car,1
NA,kid_10,10,NA,table,5274.3,familiar,far,diningtable.jpg,wardrobe.jpg,NA,25,386122,kid,7,NA,5,table,1
NA,kid_10,10,NA,wolf,4907.9,familiar,far,germanshepherd.jpg,cow.jpg,NA,26,391538,kid,7,NA,4,wolf,1
NA,kid_10,10,NA,person,10144,tangram,far,B1.jpg,tangram-4.jpg,NA,28,416736,kid,7,NA,6,person,
NA,kid_10,10,NA,person running,7712.5,tangram,far,tangram-67.jpg,G1.jpg,NA,29,424955,kid,7,NA,14,run,
NA,kid_10,10,NA,person walking,7053.9,tangram,far,tangram-90.jpg,tangram-120.jpg,NA,30,432517,kid,7,NA,14,walk,
NA,kid_10,10,NA,person stretching,10681.5,tangram,far,A2.jpg,C1.jpg,NA,31,443705,kid,7,NA,17,stretch,
NA,kid_10,10,NA,person kicking,8167.1,tangram,far,tangram-164.jpg,tangram-64.jpg,NA,32,452382,kid,7,NA,14,kick,
NA,kid_10,10,NA,person pointing,7976.8,tangram,far,H1.jpg,tangram-8.jpg,NA,33,460867,kid,7,NA,15,point,
NA,kid_10,10,NA,person running,6558.4,tangram,far,tangram-55.jpg,tangram-143.jpg,NA,34,467932,kid,7,NA,14,run,
NA,kid_10,10,NA,person running,6919.9,tangram,far,tangram-48.jpg,D1.jpg,NA,35,475359,kid,7,NA,14,run,
NA,kid_10,10,NA,table,5373.8,familiar,close,diningtable.jpg,picnictable.jpg,NA,37,491359,kid,7,NA,5,table,
NA,kid_10,10,NA,car,4619.9,familiar,close,sedan.jpg,sportscar.jpg,NA,38,496486,kid,7,NA,3,car,0
NA,kid_10,10,NA,bear,4642.6,familiar,close,grizzlybear.jpg,polarbear.jpg,NA,39,501633,kid,7,NA,4,bear,0
NA,kid_10,10,NA,dog,4477.1,familiar,close,germanshepherd.jpg,pug.jpg,NA,40,506617,kid,7,NA,3,dog,0
NA,kid_10,10,NA,jellybeans,8022.8,familiar,close,jellybeans.jpg,gummybears.jpg,NA,41,515146,kid,7,NA,10,jellybeans,1
NA,kid_10,10,NA,woodpecker,36919.7,familiar,close,sparrow.jpg,eagle.jpg,NA,42,552574,kid,7,NA,10,woodpecker,1
NA,kid_10,10,NA,shirt,4098.1,familiar,close,poloshirt.jpg,hawaiishirt.jpg,NA,43,557178,kid,7,NA,5,shirt,0
NA,kid_10,10,NA,fish,4854.9,familiar,close,goldfish.jpg,swordfish.jpg,NA,44,562541,kid,7,NA,4,fish,0
NA,kid_10,10,NA,person running,5882.2,tangram,close,tangram-55.jpg,N1.jpg,NA,46,583662,kid,7,NA,14,run,
NA,kid_10,10,NA,person pointing,7891.9,tangram,close,H1.jpg,I1.jpg,NA,47,592059,kid,7,NA,15,point,
NA,kid_10,10,NA,person running,5615.9,tangram,close,tangram-90.jpg,tangram-81.jpg,NA,48,598184,kid,7,NA,14,run,
NA,kid_10,10,NA,person walking,6737.1,tangram,close,A2.jpg,tangram-99.jpg,NA,49,605428,kid,7,NA,14,walk,
NA,kid_10,10,NA,person running,9145,tangram,close,tangram-48.jpg,tangram-187.jpg,NA,50,615080,kid,7,NA,14,run,
NA,kid_10,10,NA,person walking,5514.7,tangram,close,B1.jpg,P1.jpg,NA,51,621103,kid,7,NA,14,walk,
NA,kid_10,10,NA,person running,8619.6,tangram,close,tangram-67.jpg,tangram-32.jpg,NA,52,630228,kid,7,NA,14,run,
NA,kid_10,10,NA,person sitting,8979,tangram,close,tangram-164.jpg,tangram-183.jpg,NA,53,639712,kid,7,NA,14,sit,
NA,kid_10,10,NA,bird,17225.1,familiar,check,parrot.jpg,pigeon.jpg,NA,55,704627,kid,7,0,4,bird,
NA,kid_10,10,NA,polar bear,7388.6,familiar,check,polarbear.jpg,grizzlybear.jpg,NA,56,712522,kid,7,0,10,polarbear,
NA,kid_10,10,NA,m&ms,8846.1,familiar,check,mnms.jpg,gummybears.jpg,NA,57,721873,kid,7,0,4,mnms,
NA,kid_10,10,NA,shirt,7298.5,familiar,check,dressshirt.jpg,campshirt.jpg,NA,58,729676,kid,7,0,5,shirt,
NA,kid_10,10,NA,cup,12820,familiar,check,apple.jpg,pear.jpg,NA,59,742998,kid,7,1,3,cup,
NA,kid_10,10,NA,dog,6421.2,familiar,check,husky.jpg,dalmatian.jpg,NA,60,749927,kid,7,0,3,dog,
NA,kid_10,10,NA,table,6378.7,familiar,check,pug.jpg,rabbit.jpg,NA,61,756810,kid,7,1,5,table,
NA,kid_10,10,NA,red flower,8047.6,familiar,check,rose.jpg,daisy.jpg,NA,62,765364,kid,7,0,10,redflower,
NA,kid_10,10,NA,bear,11422.2,familiar,check,firetruck.jpg,ambulance.jpg,NA,63,777291,kid,7,1,4,bear,
NA,kid_11,11,NA,blue shirt,7774.4,familiar,far,poloshirt.jpg,dress.jpg,NA,19,326037,kid,8,NA,10,blueshirt,2
NA,kid_11,11,NA,blue car,5658.8,familiar,far,sedan.jpg,firetruck.jpg,NA,20,332201,kid,8,NA,8,bluecar,2
NA,kid_11,11,NA,desk,8974.1,familiar,far,diningtable.jpg,wardrobe.jpg,NA,21,341679,kid,8,NA,4,desk,1
NA,kid_11,11,NA,goldfish,8210.2,familiar,far,goldfish.jpg,iguana.jpg,NA,22,350395,kid,8,NA,8,goldfish,1
NA,kid_11,11,NA,brown bear,6538.8,familiar,far,grizzlybear.jpg,lion.jpg,NA,23,357440,kid,8,NA,10,brownbear,2
NA,kid_11,11,NA,bird,4653.5,familiar,far,sparrow.jpg,squirrel.jpg,NA,24,362602,kid,8,NA,4,bird,1
NA,kid_11,11,NA,dog,4559.6,familiar,far,germanshepherd.jpg,cow.jpg,NA,25,367667,kid,8,NA,3,dog,1
NA,kid_11,11,NA,jellybeans,7566.9,familiar,far,jellybeans.jpg,pretzels.jpg,NA,26,375741,kid,8,NA,10,jellybeans,1
NA,kid_11,11,NA,weird shape,13023.8,tangram,far,tangram-90.jpg,tangram-120.jpg,NA,28,402564,kid,8,NA,11,weirdshape,
NA,kid_11,11,NA,something black,19286.1,tangram,far,H1.jpg,tangram-8.jpg,NA,29,422356,kid,8,NA,15,black,
NA,kid_11,11,NA,dress with diamonds attached to it,18799,tangram,far,A2.jpg,C1.jpg,NA,30,441663,kid,8,NA,34,dresswithdiamondattachtoit,
NA,kid_11,11,NA,head that looks weird,31844.8,tangram,far,tangram-48.jpg,D1.jpg,NA,31,474016,kid,8,NA,21,headthatlookweird,
NA,kid_11,11,NA,person walking,9721,tangram,far,B1.jpg,tangram-4.jpg,NA,32,484244,kid,8,NA,14,walk,
NA,kid_11,11,NA,someone running,7014.2,tangram,far,tangram-55.jpg,tangram-143.jpg,NA,33,491766,kid,8,NA,15,run,
NA,kid_11,11,NA,person running,14634.9,tangram,far,tangram-67.jpg,G1.jpg,NA,34,506908,kid,8,NA,14,run,
NA,kid_11,11,NA,person that looks like hes sitting on an invisible seat,16042.9,tangram,far,tangram-164.jpg,tangram-64.jpg,NA,35,523458,kid,8,NA,55,sitoninvisibleseat,
NA,kid_11,11,NA,small bird,10249.8,familiar,close,sparrow.jpg,eagle.jpg,NA,37,547032,kid,8,NA,10,smallbird,1
NA,kid_11,11,NA,goldfish,5928.2,familiar,close,goldfish.jpg,swordfish.jpg,NA,38,553468,kid,8,NA,8,goldfish,1
NA,kid_11,11,NA,brown bear,10887.5,familiar,close,grizzlybear.jpg,polarbear.jpg,NA,39,564867,kid,8,NA,10,brownbear,1
NA,kid_11,11,NA,desk,6495.6,familiar,close,diningtable.jpg,picnictable.jpg,NA,40,571866,kid,8,NA,4,desk,1
NA,kid_11,11,NA,"white, black, and brown dog",17980.1,familiar,close,germanshepherd.jpg,pug.jpg,NA,41,590355,kid,8,NA,27,whiteblackbrowndog,1
NA,kid_11,11,NA,jellybeans,9256.8,familiar,close,jellybeans.jpg,gummybears.jpg,NA,42,600120,kid,8,NA,10,jellybeans,1
NA,kid_11,11,NA,"plain, blue shirt",8338.2,familiar,close,poloshirt.jpg,hawaiishirt.jpg,NA,43,608964,kid,8,NA,17,plainblueshirt,1
NA,kid_11,11,NA,blue car,4985.9,familiar,close,sedan.jpg,sportscar.jpg,NA,44,614456,kid,8,NA,8,bluecar,1
NA,kid_11,11,NA,someone walking with their arms in their coat,33195.1,tangram,close,B1.jpg,P1.jpg,NA,46,661766,kid,8,NA,45,walkarmincoat,
NA,kid_11,11,NA,someone without an arm,13432.1,tangram,close,H1.jpg,I1.jpg,NA,47,675706,kid,8,NA,22,withoutarm,
NA,kid_11,11,NA,someone kicking something,9704.8,tangram,close,tangram-48.jpg,tangram-187.jpg,NA,48,685919,kid,8,NA,25,kick,
NA,kid_11,11,NA,someone running really fast,9403.1,tangram,close,tangram-55.jpg,N1.jpg,NA,49,695831,kid,8,NA,27,runreallyfast,
NA,kid_11,11,NA,someone trying to look good,14799.5,tangram,close,tangram-90.jpg,tangram-81.jpg,NA,50,711140,kid,8,NA,27,trytolookgood,
NA,kid_11,11,NA,someone sitting down,7332.3,tangram,close,tangram-164.jpg,tangram-183.jpg,NA,51,718981,kid,8,NA,20,sitdown,
NA,kid_11,11,NA,someone in a dress with her arms behind her,17237.2,tangram,close,A2.jpg,tangram-99.jpg,NA,52,736726,kid,8,NA,43,dressarmbehind,
NA,kid_11,11,NA,someone running,10110,tangram,close,tangram-67.jpg,tangram-32.jpg,NA,53,747344,kid,8,NA,15,run,
NA,kid_11,11,NA,polar bear,7966.1,familiar,check,polarbear.jpg,grizzlybear.jpg,NA,55,801777,kid,8,0,10,polarbear,
NA,kid_11,11,NA,shirt,7456.4,familiar,check,dressshirt.jpg,campshirt.jpg,NA,56,809741,kid,8,1,5,shirt,
NA,kid_11,11,NA,dog,7397.6,familiar,check,husky.jpg,dalmatian.jpg,NA,57,817643,kid,8,1,3,dog,
NA,kid_11,11,NA,table,10085,familiar,check,pug.jpg,rabbit.jpg,NA,58,828233,kid,8,1,5,table,
NA,kid_11,11,NA,red flower,8875.4,familiar,check,rose.jpg,daisy.jpg,NA,59,837615,kid,8,0,10,redflower,
NA,kid_11,11,NA,bear,8879.5,familiar,check,firetruck.jpg,ambulance.jpg,NA,60,847000,kid,8,1,4,bear,
NA,kid_11,11,NA,m&ms,6539.6,familiar,check,mnms.jpg,gummybears.jpg,NA,61,854048,kid,8,0,4,mnms,
NA,kid_11,11,NA,cup,7921.8,familiar,check,apple.jpg,pear.jpg,NA,62,862475,kid,8,1,3,cup,
NA,kid_11,11,NA,bird,9875.9,familiar,check,parrot.jpg,pigeon.jpg,NA,63,872858,kid,8,1,4,bird,
NA,kid_12,12,NA,car,14606.1,familiar,far,sedan.jpg,firetruck.jpg,NA,19,783184,kid,6,NA,3,car,1
NA,kid_12,12,NA,bird,7268.5,familiar,far,sparrow.jpg,squirrel.jpg,NA,20,790958,kid,6,NA,4,bird,1
NA,kid_12,12,NA,bear,9993.3,familiar,far,grizzlybear.jpg,lion.jpg,NA,21,801456,kid,6,NA,4,bear,1
NA,kid_12,12,NA,dog,9291.6,familiar,far,germanshepherd.jpg,cow.jpg,NA,22,811255,kid,6,NA,3,dog,1
NA,kid_12,12,NA,jellybeans,18888.5,familiar,far,jellybeans.jpg,pretzels.jpg,NA,23,830648,kid,6,NA,10,jellybeans,1
NA,kid_12,12,NA,shirt,5306.9,familiar,far,poloshirt.jpg,dress.jpg,NA,24,836460,kid,6,NA,5,shirt,1
NA,kid_12,12,NA,fish,4734.9,familiar,far,goldfish.jpg,iguana.jpg,NA,25,841703,kid,6,NA,4,fish,1
NA,kid_12,12,NA,table,4885,familiar,far,diningtable.jpg,wardrobe.jpg,NA,26,847096,kid,6,NA,5,table,1
NA,kid_12,12,NA,shapes,75262.2,tangram,close,tangram-90.jpg,tangram-81.jpg,NA,28,931403,kid,6,NA,6,shape,
NA,kid_12,12,NA,shapes,14085.6,tangram,close,tangram-67.jpg,tangram-32.jpg,NA,29,945993,kid,6,NA,6,shape,
NA,kid_12,12,NA,shapes,25407.4,tangram,close,tangram-48.jpg,tangram-187.jpg,NA,30,971910,kid,6,NA,6,shape,
NA,kid_12,12,NA,running,86408.5,tangram,close,tangram-55.jpg,N1.jpg,NA,31,1058829,kid,6,NA,7,run,
NA,kid_12,12,NA,walking,64683.5,tangram,close,B1.jpg,P1.jpg,NA,32,1124021,kid,6,NA,7,walk,
NA,kid_12,12,NA,i dont know,97508.8,tangram,close,H1.jpg,I1.jpg,NA,33,1222038,kid,6,NA,11,idoknow,
NA,kid_12,12,NA,walking,20594.4,tangram,close,A2.jpg,tangram-99.jpg,NA,34,1243137,kid,6,NA,7,walk,
NA,kid_12,12,NA,jumping,14633.2,tangram,close,tangram-164.jpg,tangram-183.jpg,NA,35,1258277,kid,6,NA,7,jump,
NA,kid_12,12,NA,car,15136,familiar,close,sedan.jpg,sportscar.jpg,NA,37,1284483,kid,6,NA,3,car,0
NA,kid_12,12,NA,fish,13238.5,familiar,close,goldfish.jpg,swordfish.jpg,NA,38,1298230,kid,6,NA,4,fish,0
NA,kid_12,12,NA,dog,10321.6,familiar,close,germanshepherd.jpg,pug.jpg,NA,39,1309060,kid,6,NA,3,dog,0
NA,kid_12,12,NA,bear,5129.6,familiar,close,grizzlybear.jpg,polarbear.jpg,NA,40,1314696,kid,6,NA,4,bear,0
NA,kid_12,12,NA,table,4608.7,familiar,close,diningtable.jpg,picnictable.jpg,NA,41,1319811,kid,6,NA,5,table,0
NA,kid_12,12,NA,jellybeans,5961.1,familiar,close,jellybeans.jpg,gummybears.jpg,NA,42,1326283,kid,6,NA,10,jellybeans,1
NA,kid_12,12,NA,shirt,4765.8,familiar,close,poloshirt.jpg,hawaiishirt.jpg,NA,43,1331561,kid,6,NA,5,shirt,0
NA,kid_12,12,NA,bird,11851.1,familiar,close,sparrow.jpg,eagle.jpg,NA,44,1343919,kid,6,NA,4,bird,0
NA,kid_12,12,NA,shapes,85524.4,tangram,far,A2.jpg,C1.jpg,NA,46,1439099,kid,6,NA,6,shape,
NA,kid_12,12,NA,shapes,7393.1,tangram,far,tangram-90.jpg,tangram-120.jpg,NA,47,1446997,kid,6,NA,6,shape,
NA,kid_12,12,NA,shapes,41387.6,tangram,far,H1.jpg,tangram-8.jpg,NA,48,1488893,kid,6,NA,6,shape,
NA,kid_12,12,NA,running,12014.5,tangram,far,tangram-67.jpg,G1.jpg,NA,49,1501414,kid,6,NA,7,run,
NA,kid_12,12,NA,jumping,8053.6,tangram,far,tangram-164.jpg,tangram-64.jpg,NA,50,1509975,kid,6,NA,7,jump,
NA,kid_12,12,NA,i dont know,16394.4,tangram,far,tangram-48.jpg,D1.jpg,NA,51,1526874,kid,6,NA,11,idoknow,
NA,kid_12,12,NA,shapes,25035.7,tangram,far,tangram-55.jpg,tangram-143.jpg,NA,52,1552417,kid,6,NA,6,shape,
NA,kid_12,12,NA,walking,7047.9,tangram,far,B1.jpg,tangram-4.jpg,NA,53,1559971,kid,6,NA,7,walk,
NA,kid_12,12,NA,dog,16861,familiar,check,husky.jpg,dalmatian.jpg,NA,55,1630290,kid,6,1,3,dog,
NA,kid_12,12,NA,bear,12394.8,familiar,check,firetruck.jpg,ambulance.jpg,NA,56,1643187,kid,6,0,4,bear,
NA,kid_12,12,NA,shirt,12777.7,familiar,check,dressshirt.jpg,campshirt.jpg,NA,57,1656469,kid,6,0,5,shirt,
NA,kid_12,12,NA,polar bear,8262.4,familiar,check,polarbear.jpg,grizzlybear.jpg,NA,58,1665238,kid,6,0,10,polarbear,
NA,kid_12,12,NA,cup,9801.1,familiar,check,apple.jpg,pear.jpg,NA,59,1675542,kid,6,1,3,cup,
NA,kid_12,12,NA,bird,16166.8,familiar,check,parrot.jpg,pigeon.jpg,NA,60,1692212,kid,6,1,4,bird,
NA,kid_12,12,NA,table,10174.4,familiar,check,pug.jpg,rabbit.jpg,NA,61,1702889,kid,6,1,5,table,
NA,kid_12,12,NA,red flower,7888.1,familiar,check,rose.jpg,daisy.jpg,NA,62,1711284,kid,6,0,10,redflower,
NA,kid_12,12,NA,m&ms,11921.8,familiar,check,mnms.jpg,gummybears.jpg,NA,63,1723716,kid,6,0,4,mnms,
NA,kid_13,13,NA,fish,5618.2,familiar,far,goldfish.jpg,iguana.jpg,NA,19,559960,kid,5,NA,4,fish,1
NA,kid_13,13,NA,table,4885,familiar,far,diningtable.jpg,wardrobe.jpg,NA,20,565350,kid,5,NA,5,table,1
NA,kid_13,13,NA,car,4431.3,familiar,far,sedan.jpg,firetruck.jpg,NA,21,570285,kid,5,NA,3,car,1
NA,kid_13,13,NA,shirt,5290.4,familiar,far,poloshirt.jpg,dress.jpg,NA,22,576081,kid,5,NA,5,shirt,1
NA,kid_13,13,NA,bird,4997,familiar,far,sparrow.jpg,squirrel.jpg,NA,23,581586,kid,5,NA,4,bird,1
NA,kid_13,13,NA,bear,4202,familiar,far,grizzlybear.jpg,lion.jpg,NA,24,586296,kid,5,NA,4,bear,1
NA,kid_13,13,NA,jellybeans,5627.3,familiar,far,jellybeans.jpg,pretzels.jpg,NA,25,592429,kid,5,NA,10,jellybeans,1
NA,kid_13,13,NA,dog,4707.1,familiar,far,germanshepherd.jpg,cow.jpg,NA,26,597645,kid,5,NA,3,dog,1
NA,kid_13,13,NA,someone running,15219,tangram,close,tangram-67.jpg,tangram-32.jpg,NA,28,626267,kid,5,NA,15,run,
NA,kid_13,13,NA,i dont know,86803.2,tangram,close,A2.jpg,tangram-99.jpg,NA,29,713580,kid,5,NA,11,idoknow,
NA,kid_13,13,NA,someone running,8430.8,tangram,close,tangram-55.jpg,N1.jpg,NA,30,722518,kid,5,NA,15,run,
NA,kid_13,13,NA,someone on one tippy toe,15176.6,tangram,close,tangram-48.jpg,tangram-187.jpg,NA,31,738203,kid,5,NA,24,tippytoe,
NA,kid_13,13,NA,person running,9453.8,tangram,close,tangram-90.jpg,tangram-81.jpg,NA,32,748161,kid,5,NA,14,run,
NA,kid_13,13,NA,someone walking,6879.1,tangram,close,B1.jpg,P1.jpg,NA,33,755547,kid,5,NA,15,walk,
NA,kid_13,13,NA,someone holding a bowl,14914.5,tangram,close,H1.jpg,I1.jpg,NA,34,770967,kid,5,NA,22,holdabowl,
NA,kid_13,13,NA,standing on one leg with one higher,48636.9,tangram,close,tangram-164.jpg,tangram-183.jpg,NA,35,820110,kid,5,NA,35,standononelegwithonehigh,
NA,kid_13,13,NA,bird,5933.9,familiar,close,sparrow.jpg,eagle.jpg,NA,37,836251,kid,5,NA,4,bird,0
NA,kid_13,13,NA,jellybeans,6042.9,familiar,close,jellybeans.jpg,gummybears.jpg,NA,38,842800,kid,5,NA,10,jellybeans,1
NA,kid_13,13,NA,dog,9050.2,familiar,close,germanshepherd.jpg,pug.jpg,NA,39,852354,kid,5,NA,3,dog,0
NA,kid_13,13,NA,brown bear,6865.8,familiar,close,grizzlybear.jpg,polarbear.jpg,NA,40,859725,kid,5,NA,10,brownbear,1
NA,kid_13,13,NA,rectangle table,9683.7,familiar,close,diningtable.jpg,picnictable.jpg,NA,41,869918,kid,5,NA,15,rectangletable,1
NA,kid_13,13,NA,goldfish,11874.5,familiar,close,goldfish.jpg,swordfish.jpg,NA,42,882303,kid,5,NA,8,goldfish,1
NA,kid_13,13,NA,blue shirt,7756.5,familiar,close,poloshirt.jpg,hawaiishirt.jpg,NA,43,890564,kid,5,NA,10,blueshirt,1
NA,kid_13,13,NA,blue car,5679.6,familiar,close,sedan.jpg,sportscar.jpg,NA,44,896749,kid,5,NA,8,bluecar,1
NA,kid_13,13,NA,someone balancing on one foot with one leg higher,19076.8,tangram,far,tangram-164.jpg,tangram-64.jpg,NA,46,932902,kid,5,NA,49,balanceononefootwithoneleghigh,
NA,kid_13,13,NA,somebody running,7560.8,tangram,far,tangram-55.jpg,tangram-143.jpg,NA,47,940970,kid,5,NA,16,run,
NA,kid_13,13,NA,somebody running,8516.1,tangram,far,tangram-67.jpg,G1.jpg,NA,48,949994,kid,5,NA,16,run,
NA,kid_13,13,NA,someone holding a bowl,8301.2,tangram,far,H1.jpg,tangram-8.jpg,NA,49,958804,kid,5,NA,22,holdabowl,
NA,kid_13,13,NA,person running,7112.2,tangram,far,tangram-90.jpg,tangram-120.jpg,NA,50,966422,kid,5,NA,14,run,
NA,kid_13,13,NA,someone tippy-toeing,16446.1,tangram,far,A2.jpg,C1.jpg,NA,51,983375,kid,5,NA,20,tippytoe,
NA,kid_13,13,NA,someone standing on his tippy toe with his leg up,18697.1,tangram,far,tangram-48.jpg,D1.jpg,NA,52,1002579,kid,5,NA,49,tippytoelegup,
NA,kid_13,13,NA,someone walking,7696.3,tangram,far,B1.jpg,tangram-4.jpg,NA,53,1010785,kid,5,NA,15,walk,
NA,kid_13,13,NA,shirt,22176.9,familiar,check,dressshirt.jpg,campshirt.jpg,NA,55,1081071,kid,5,0,5,shirt,
NA,kid_13,13,NA,dog,12357.6,familiar,check,husky.jpg,dalmatian.jpg,NA,56,1093932,kid,5,0,3,dog,
NA,kid_13,13,NA,bear,15823.1,familiar,check,firetruck.jpg,ambulance.jpg,NA,57,1110259,kid,5,1,4,bear,
NA,kid_13,13,NA,cup,7594.2,familiar,check,apple.jpg,pear.jpg,NA,58,1118358,kid,5,1,3,cup,
NA,kid_13,13,NA,table,6679.6,familiar,check,pug.jpg,rabbit.jpg,NA,59,1125541,kid,5,1,5,table,
NA,kid_13,13,NA,m&ms,6936.5,familiar,check,mnms.jpg,gummybears.jpg,NA,60,1132982,kid,5,0,4,mnms,
NA,kid_13,13,NA,polar bear,7568.9,familiar,check,polarbear.jpg,grizzlybear.jpg,NA,61,1141059,kid,5,0,10,polarbear,
NA,kid_13,13,NA,bird,7630.4,familiar,check,parrot.jpg,pigeon.jpg,NA,62,1149194,kid,5,0,4,bird,
NA,kid_13,13,NA,red flower,21311.7,familiar,check,rose.jpg,daisy.jpg,NA,63,1171009,kid,5,0,10,redflower,
NA,kid_14,14,NA,table that is white with brown legs,25523.8,familiar,close,diningtable.jpg,picnictable.jpg,NA,19,2970676,kid,7,NA,39,tablethatbewhitewithbrownleg,
NA,kid_14,14,NA,a chiuaua,11756.1,familiar,close,germanshepherd.jpg,pug.jpg,NA,20,2982940,kid,7,NA,9,chihuahua,1
NA,kid_14,14,NA,bear,5672.5,familiar,close,grizzlybear.jpg,polarbear.jpg,NA,21,2989120,kid,7,NA,4,bear,0
NA,kid_14,14,NA,jellybeans,5970.1,familiar,close,jellybeans.jpg,gummybears.jpg,NA,22,2995599,kid,7,NA,10,jellybeans,1
NA,kid_14,14,NA,bird,5909.7,familiar,close,sparrow.jpg,eagle.jpg,NA,23,3002019,kid,7,NA,4,bird,0
NA,kid_14,14,NA,blue shirt,5892.5,familiar,close,poloshirt.jpg,hawaiishirt.jpg,NA,24,3008420,kid,7,NA,10,blueshirt,1
NA,kid_14,14,NA,blue car,16792.7,familiar,close,sedan.jpg,sportscar.jpg,NA,25,3025721,kid,7,NA,8,bluecar,1
NA,kid_14,14,NA,goldfish,6448,familiar,close,goldfish.jpg,swordfish.jpg,NA,26,3032677,kid,7,NA,8,goldfish,1
NA,kid_14,14,NA,probably human,12541.5,tangram,far,B1.jpg,tangram-4.jpg,NA,28,3058749,kid,7,NA,14,probablyhuman,
NA,kid_14,14,NA,human leaping,11012.2,tangram,far,tangram-67.jpg,G1.jpg,NA,29,3070267,kid,7,NA,13,humanleap,
NA,kid_14,14,NA,human dancing,8100.2,tangram,far,tangram-90.jpg,tangram-120.jpg,NA,30,3078875,kid,7,NA,13,humandance,
NA,kid_14,14,NA,person sitting,16670.1,tangram,far,H1.jpg,tangram-8.jpg,NA,31,3096050,kid,7,NA,14,sit,
NA,kid_14,14,NA,girl with her arm out,9964.5,tangram,far,A2.jpg,C1.jpg,NA,32,3106519,kid,7,NA,21,girlarmout,
NA,kid_14,14,NA,guy balancing on one fit sitting,13156.6,tangram,far,tangram-164.jpg,tangram-64.jpg,NA,33,3120182,kid,7,NA,32,guybalanceononefitsit,
NA,kid_14,14,NA,someone aerobesquing backwards,28813.8,tangram,far,tangram-48.jpg,D1.jpg,NA,34,3149504,kid,7,NA,30,aerobesquingbackwards,
NA,kid_14,14,NA,person getting ready to run,9106.3,tangram,far,tangram-55.jpg,tangram-143.jpg,NA,35,3159118,kid,7,NA,27,readytorun,
NA,kid_14,14,NA,goldfish,5232.6,familiar,far,goldfish.jpg,iguana.jpg,NA,37,3175012,kid,7,NA,8,goldfish,1
NA,kid_14,14,NA,table,6325.4,familiar,far,diningtable.jpg,wardrobe.jpg,NA,38,3181844,kid,7,NA,5,table,1
NA,kid_14,14,NA,blue car,4967,familiar,far,sedan.jpg,firetruck.jpg,NA,39,3187319,kid,7,NA,8,bluecar,2
NA,kid_14,14,NA,bird,4407.9,familiar,far,sparrow.jpg,squirrel.jpg,NA,40,3192232,kid,7,NA,4,bird,1
NA,kid_14,14,NA,chihuahua,5578.2,familiar,far,germanshepherd.jpg,cow.jpg,NA,41,3198317,kid,7,NA,9,chihuahua,2
NA,kid_14,14,NA,bear,4753,familiar,far,grizzlybear.jpg,lion.jpg,NA,42,3203576,kid,7,NA,4,bear,1
NA,kid_14,14,NA,jellybeans,4277.2,familiar,far,jellybeans.jpg,pretzels.jpg,NA,43,3208361,kid,7,NA,10,jellybeans,1
NA,kid_14,14,NA,blue shirt,3380.5,familiar,far,poloshirt.jpg,dress.jpg,NA,44,3212246,kid,7,NA,10,blueshirt,2
NA,kid_14,14,NA,leaping,5590.8,tangram,close,tangram-67.jpg,tangram-32.jpg,NA,46,3228374,kid,7,NA,7,leap,
NA,kid_14,14,NA,aerobesque backwards,11087.4,tangram,close,tangram-90.jpg,tangram-81.jpg,NA,47,3239965,kid,7,NA,20,aerobesquebackwards,
NA,kid_14,14,NA,person getting ready to run,8306.4,tangram,close,tangram-55.jpg,N1.jpg,NA,48,3248783,kid,7,NA,27,readytorun,
NA,kid_14,14,NA,person dancing,7017.5,tangram,close,tangram-164.jpg,tangram-183.jpg,NA,49,3256309,kid,7,NA,14,dance,
NA,kid_14,14,NA,somebody sticking their foot out,13046.7,tangram,close,tangram-48.jpg,tangram-187.jpg,NA,50,3269863,kid,7,NA,32,sticktheirfootout,
NA,kid_14,14,NA,a woman with her arm out,8913.7,tangram,close,A2.jpg,tangram-99.jpg,NA,51,3279283,kid,7,NA,24,womanarmout,
NA,kid_14,14,NA,somebody sitting,9927.8,tangram,close,H1.jpg,I1.jpg,NA,52,3289715,kid,7,NA,16,sit,
NA,kid_14,14,NA,somebody walking with their head down,11235.3,tangram,close,B1.jpg,P1.jpg,NA,53,3301455,kid,7,NA,37,walkheaddown,
NA,kid_14,14,NA,polar bear,8370,familiar,check,polarbear.jpg,grizzlybear.jpg,NA,55,3348086,kid,7,0,10,polarbear,
NA,kid_14,14,NA,table,6575.1,familiar,check,pug.jpg,rabbit.jpg,NA,56,3355166,kid,7,1,5,table,
NA,kid_14,14,NA,red flower,6746.5,familiar,check,rose.jpg,daisy.jpg,NA,57,3362415,kid,7,0,10,redflower,
NA,kid_14,14,NA,bird,8036.9,familiar,check,parrot.jpg,pigeon.jpg,NA,58,3370956,kid,7,0,4,bird,
NA,kid_14,14,NA,shirt,6395.9,familiar,check,dressshirt.jpg,campshirt.jpg,NA,59,3377859,kid,7,0,5,shirt,
NA,kid_14,14,NA,cup,6833.3,familiar,check,apple.jpg,pear.jpg,NA,60,3385196,kid,7,1,3,cup,
NA,kid_14,14,NA,bear,6471.9,familiar,check,firetruck.jpg,ambulance.jpg,NA,61,3392171,kid,7,1,4,bear,
NA,kid_14,14,NA,m&ms,6473.9,familiar,check,mnms.jpg,gummybears.jpg,NA,62,3399152,kid,7,0,4,mnms,
NA,kid_14,14,NA,dog,8315.2,familiar,check,husky.jpg,dalmatian.jpg,NA,63,3407971,kid,7,0,3,dog,
NA,kid_15,15,NA,orange fish,7748,familiar,close,goldfish.jpg,swordfish.jpg,NA,19,1299063,kid,5,NA,11,orangefish,1
NA,kid_15,15,NA,rectangle table,8412.3,familiar,close,diningtable.jpg,picnictable.jpg,NA,20,1307984,kid,5,NA,15,rectangletable,1
NA,kid_15,15,NA,blue shirt,5757.6,familiar,close,poloshirt.jpg,hawaiishirt.jpg,NA,21,1314251,kid,5,NA,10,blueshirt,1
NA,kid_15,15,NA,brown bear,6334.3,familiar,close,grizzlybear.jpg,polarbear.jpg,NA,22,1321092,kid,5,NA,10,brownbear,1
NA,kid_15,15,NA,dog,6354.6,familiar,close,germanshepherd.jpg,pug.jpg,NA,23,1327954,kid,5,NA,3,dog,0
NA,kid_15,15,NA,blue car,5451.3,familiar,close,sedan.jpg,sportscar.jpg,NA,24,1333909,kid,5,NA,8,bluecar,1
NA,kid_15,15,NA,bird,5336.4,familiar,close,sparrow.jpg,eagle.jpg,NA,25,1339751,kid,5,NA,4,bird,0
NA,kid_15,15,NA,jellybeans,6286.5,familiar,close,jellybeans.jpg,gummybears.jpg,NA,26,1346546,kid,5,NA,10,jellybeans,1
NA,kid_15,15,NA,building blocks,13476.1,tangram,far,A2.jpg,C1.jpg,NA,28,1371318,kid,5,NA,15,buildblock,
NA,kid_15,15,NA,building blocks,10677.7,tangram,far,H1.jpg,tangram-8.jpg,NA,29,1382502,kid,5,NA,15,buildblock,
NA,kid_15,15,NA,building blocks,33553.3,tangram,far,tangram-90.jpg,tangram-120.jpg,NA,30,1416559,kid,5,NA,15,buildblock,
NA,kid_15,15,NA,has a head and legs,31245,tangram,far,tangram-48.jpg,D1.jpg,NA,31,1448311,kid,5,NA,19,headleg,
NA,kid_15,15,NA,"square legs, rectangle body, two legs",18678,tangram,far,tangram-164.jpg,tangram-64.jpg,NA,32,1467495,kid,5,NA,37,squarelegrectanglebodytwoleg,
NA,kid_15,15,NA,"square head, body, and two legs",21517.6,tangram,far,tangram-55.jpg,tangram-143.jpg,NA,33,1489522,kid,5,NA,31,squareheadbodytwoleg,
NA,kid_15,15,NA,"square head, body, two legs",14151.9,tangram,far,B1.jpg,tangram-4.jpg,NA,34,1504182,kid,5,NA,27,squareheadbodytwoleg,
NA,kid_15,15,NA,"head, body, two legs",9503.5,tangram,far,tangram-67.jpg,G1.jpg,NA,35,1514196,kid,5,NA,20,headbodytwoleg,
NA,kid_15,15,NA,jellybeans,6450.1,familiar,far,jellybeans.jpg,pretzels.jpg,NA,37,1533182,kid,5,NA,10,jellybeans,1
NA,kid_15,15,NA,brown bear,7286,familiar,far,grizzlybear.jpg,lion.jpg,NA,38,1540976,kid,5,NA,10,brownbear,2
NA,kid_15,15,NA,orange fish,7016.4,familiar,far,goldfish.jpg,iguana.jpg,NA,39,1548501,kid,5,NA,11,orangefish,2
NA,kid_15,15,NA,dog,6213.3,familiar,far,germanshepherd.jpg,cow.jpg,NA,40,1555219,kid,5,NA,3,dog,1
NA,kid_15,15,NA,rectangle table,7190.6,familiar,far,diningtable.jpg,wardrobe.jpg,NA,41,1562916,kid,5,NA,15,rectangletable,2
NA,kid_15,15,NA,bird,4277.2,familiar,far,sparrow.jpg,squirrel.jpg,NA,42,1567697,kid,5,NA,4,bird,1
NA,kid_15,15,NA,blue car,9020.8,familiar,far,sedan.jpg,firetruck.jpg,NA,43,1577224,kid,5,NA,8,bluecar,2
NA,kid_15,15,NA,blue shirt,5147.4,familiar,far,poloshirt.jpg,dress.jpg,NA,44,1582878,kid,5,NA,10,blueshirt,2
NA,kid_15,15,NA,"square head, body, and legs",14634.9,tangram,close,tangram-55.jpg,N1.jpg,NA,46,1609494,kid,5,NA,27,squareheadbodyleg,
NA,kid_15,15,NA,"square head, body and two legs",52351.1,tangram,close,tangram-164.jpg,tangram-183.jpg,NA,47,1662352,kid,5,NA,30,squareheadbodytwoleg,
NA,kid_15,15,NA,"two legs, a body, and a head",21719,tangram,close,tangram-67.jpg,tangram-32.jpg,NA,48,1684579,kid,5,NA,28,headbodytwoleg,
NA,kid_15,15,NA,"head, body, legs",9913.5,tangram,close,B1.jpg,P1.jpg,NA,49,1695002,kid,5,NA,16,headbodyleg,
NA,kid_15,15,NA,"head, body, two arms, no legs",19879.2,tangram,close,H1.jpg,I1.jpg,NA,50,1715394,kid,5,NA,29,headbodytwoarmnoleg,
NA,kid_15,15,NA,"legs, body, head",10810.6,tangram,close,tangram-90.jpg,tangram-81.jpg,NA,51,1726713,kid,5,NA,16,headbodyleg,
NA,kid_15,15,NA,"two legs, body, head",16270,tangram,close,tangram-48.jpg,tangram-187.jpg,NA,52,1743487,kid,5,NA,20,headbodytwoleg,
NA,kid_15,15,NA,"hair, head, body, two legs",17415.3,tangram,close,A2.jpg,tangram-99.jpg,NA,53,1761407,kid,5,NA,26,hairheadbodytwoleg,
NA,kid_15,15,NA,cup,9949.4,familiar,check,apple.jpg,pear.jpg,NA,55,1811153,kid,5,0,3,cup,
NA,kid_15,15,NA,red flower,9735,familiar,check,rose.jpg,daisy.jpg,NA,56,1821390,kid,5,0,10,redflower,
NA,kid_15,15,NA,bear,9765.8,familiar,check,firetruck.jpg,ambulance.jpg,NA,57,1831660,kid,5,0,4,bear,
NA,kid_15,15,NA,polar bear,24293.6,familiar,check,polarbear.jpg,grizzlybear.jpg,NA,58,1856459,kid,5,0,10,polarbear,
NA,kid_15,15,NA,shirt,11575.1,familiar,check,dressshirt.jpg,campshirt.jpg,NA,59,1868539,kid,5,0,5,shirt,
NA,kid_15,15,NA,bird,8337.4,familiar,check,parrot.jpg,pigeon.jpg,NA,60,1877379,kid,5,0,4,bird,
NA,kid_15,15,NA,dog,7501.9,familiar,check,husky.jpg,dalmatian.jpg,NA,61,1885384,kid,5,0,3,dog,
NA,kid_15,15,NA,m&ms,9689.5,familiar,check,mnms.jpg,gummybears.jpg,NA,62,1895581,kid,5,0,4,mnms,
NA,kid_15,15,NA,table,11401.8,familiar,check,pug.jpg,rabbit.jpg,NA,63,1907489,kid,5,0,5,table,
NA,kid_16,16,NA,candy,10891.6,familiar,far,jellybeans.jpg,pretzels.jpg,NA,19,1118873,kid,8,NA,5,candy,1
NA,kid_16,16,NA,bird,4105.3,familiar,far,sparrow.jpg,squirrel.jpg,NA,20,1123484,kid,8,NA,4,bird,1
NA,kid_16,16,NA,fish,4541.3,familiar,far,goldfish.jpg,iguana.jpg,NA,21,1128528,kid,8,NA,4,fish,1
NA,kid_16,16,NA,dog,3694,familiar,far,germanshepherd.jpg,cow.jpg,NA,22,1132724,kid,8,NA,3,dog,1
NA,kid_16,16,NA,bear,4160.4,familiar,far,grizzlybear.jpg,lion.jpg,NA,23,1137388,kid,8,NA,4,bear,1
NA,kid_16,16,NA,car,4414.5,familiar,far,sedan.jpg,firetruck.jpg,NA,24,1142307,kid,8,NA,3,car,1
NA,kid_16,16,NA,blue shirt,4446,familiar,far,poloshirt.jpg,dress.jpg,NA,25,1147260,kid,8,NA,10,blueshirt,2
NA,kid_16,16,NA,table,3137.8,familiar,far,diningtable.jpg,wardrobe.jpg,NA,26,1150904,kid,8,NA,5,table,1
NA,kid_16,16,NA,shapes,16406,tangram,far,H1.jpg,tangram-8.jpg,NA,28,1178683,kid,8,NA,6,shape,
NA,kid_16,16,NA,figure that looks like a person,9886.7,tangram,far,A2.jpg,C1.jpg,NA,29,1189075,kid,8,NA,31,person,
NA,kid_16,16,NA,shapes that looks like a human,9134.7,tangram,far,tangram-48.jpg,D1.jpg,NA,30,1198715,kid,8,NA,30,human,
NA,kid_16,16,NA,shapes that looks like a human,12824.7,tangram,far,tangram-67.jpg,G1.jpg,NA,31,1212047,kid,8,NA,30,human,
NA,kid_16,16,NA,shapes in a person standing,10300.2,tangram,far,tangram-90.jpg,tangram-120.jpg,NA,32,1222851,kid,8,NA,27,stand,
NA,kid_16,16,NA,human running,7595.7,tangram,far,tangram-55.jpg,tangram-143.jpg,NA,33,1230949,kid,8,NA,13,humanrun,
NA,kid_16,16,NA,person walking,15725,tangram,far,B1.jpg,tangram-4.jpg,NA,34,1247179,kid,8,NA,14,walk,
NA,kid_16,16,NA,human sitting,12604.6,tangram,far,tangram-164.jpg,tangram-64.jpg,NA,35,1260287,kid,8,NA,13,humansit,
NA,kid_16,16,NA,circle candies,6479.8,familiar,close,jellybeans.jpg,gummybears.jpg,NA,37,1279311,kid,8,NA,14,circlecandy,1
NA,kid_16,16,NA,dog,4023,familiar,close,germanshepherd.jpg,pug.jpg,NA,38,1283841,kid,8,NA,3,dog,0
NA,kid_16,16,NA,regular bird,9374.2,familiar,close,sparrow.jpg,eagle.jpg,NA,39,1293719,kid,8,NA,12,regularbird,1
NA,kid_16,16,NA,blue car,3563.8,familiar,close,sedan.jpg,sportscar.jpg,NA,40,1297786,kid,8,NA,8,bluecar,1
NA,kid_16,16,NA,goldfish,4108.7,familiar,close,goldfish.jpg,swordfish.jpg,NA,41,1302400,kid,8,NA,8,goldfish,1
NA,kid_16,16,NA,light blue shirt,8644.5,familiar,close,poloshirt.jpg,hawaiishirt.jpg,NA,42,1311551,kid,8,NA,16,lightblueshirt,1
NA,kid_16,16,NA,brown bear,4148.8,familiar,close,grizzlybear.jpg,polarbear.jpg,NA,43,1316205,kid,8,NA,10,brownbear,1
NA,kid_16,16,NA,brown table,4243.4,familiar,close,diningtable.jpg,picnictable.jpg,NA,44,1320950,kid,8,NA,11,browntable,1
NA,kid_16,16,NA,shapes that looks like a human,10587.2,tangram,close,A2.jpg,tangram-99.jpg,NA,46,1344617,kid,8,NA,30,human,
NA,kid_16,16,NA,human running,6334.6,tangram,close,tangram-55.jpg,N1.jpg,NA,47,1351454,kid,8,NA,13,humanrun,
NA,kid_16,16,NA,sitting,4659.7,tangram,close,tangram-164.jpg,tangram-183.jpg,NA,48,1356617,kid,8,NA,7,sit,
NA,kid_16,16,NA,running,9745.8,tangram,close,tangram-67.jpg,tangram-32.jpg,NA,49,1366866,kid,8,NA,7,run,
NA,kid_16,16,NA,human holding a box,8146.3,tangram,close,H1.jpg,I1.jpg,NA,50,1375515,kid,8,NA,19,humanholdabox,
NA,kid_16,16,NA,walking slowly,6185.7,tangram,close,B1.jpg,P1.jpg,NA,51,1382203,kid,8,NA,14,walkslowly,
NA,kid_16,16,NA,human,8212.4,tangram,close,tangram-48.jpg,tangram-187.jpg,NA,52,1390918,kid,8,NA,5,human,
NA,kid_16,16,NA,standing,7270.5,tangram,close,tangram-90.jpg,tangram-81.jpg,NA,53,1398693,kid,8,NA,8,stand,
NA,kid_16,16,NA,cup,8589.2,familiar,check,apple.jpg,pear.jpg,NA,55,1447524,kid,8,1,3,cup,
NA,kid_16,16,NA,bird,6355.3,familiar,check,parrot.jpg,pigeon.jpg,NA,56,1454381,kid,8,0,4,bird,
NA,kid_16,16,NA,m&ms,7768.4,familiar,check,mnms.jpg,gummybears.jpg,NA,57,1462651,kid,8,0,4,mnms,
NA,kid_16,16,NA,red flower,6482.9,familiar,check,rose.jpg,daisy.jpg,NA,58,1469638,kid,8,0,10,redflower,
NA,kid_16,16,NA,shirt,8955.7,familiar,check,dressshirt.jpg,campshirt.jpg,NA,59,1479095,kid,8,1,5,shirt,
NA,kid_16,16,NA,bear,6974.7,familiar,check,firetruck.jpg,ambulance.jpg,NA,60,1486574,kid,8,1,4,bear,
NA,kid_16,16,NA,table,6831.7,familiar,check,pug.jpg,rabbit.jpg,NA,61,1493907,kid,8,1,5,table,
NA,kid_16,16,NA,dog,7060.2,familiar,check,husky.jpg,dalmatian.jpg,NA,62,1501471,kid,8,0,3,dog,
NA,kid_16,16,NA,polar bear,6932.6,familiar,check,polarbear.jpg,grizzlybear.jpg,NA,63,1508905,kid,8,0,10,polarbear,
NA,kid_17,17,NA,jellybeans,8502.3,familiar,far,jellybeans.jpg,pretzels.jpg,NA,19,65442832,kid,5,NA,10,jellybeans,1
NA,kid_17,17,NA,bear,4418.5,familiar,far,grizzlybear.jpg,lion.jpg,NA,20,65447755,kid,5,NA,4,bear,1
NA,kid_17,17,NA,goldfish,4954.3,familiar,far,goldfish.jpg,iguana.jpg,NA,21,65453216,kid,5,NA,8,goldfish,1
NA,kid_17,17,NA,shirt,5193.3,familiar,far,poloshirt.jpg,dress.jpg,NA,22,65458912,kid,5,NA,5,shirt,1
NA,kid_17,17,NA,car,4948.1,familiar,far,sedan.jpg,firetruck.jpg,NA,23,65464365,kid,5,NA,3,car,1
NA,kid_17,17,NA,dog,5755.4,familiar,far,germanshepherd.jpg,cow.jpg,NA,24,65470624,kid,5,NA,3,dog,1
NA,kid_17,17,NA,table,5413.6,familiar,far,diningtable.jpg,wardrobe.jpg,NA,25,65476543,kid,5,NA,5,table,1
NA,kid_17,17,NA,bird,5967.1,familiar,far,sparrow.jpg,squirrel.jpg,NA,26,65483014,kid,5,NA,4,bird,1
NA,kid_17,17,NA,person,19891.1,tangram,close,tangram-164.jpg,tangram-183.jpg,NA,28,65516486,kid,5,NA,6,person,
NA,kid_17,17,NA,person,16107.2,tangram,close,tangram-67.jpg,tangram-32.jpg,NA,29,65533096,kid,5,NA,6,person,
NA,kid_17,17,NA,tree,29896,tangram,close,A2.jpg,tangram-99.jpg,NA,30,65563494,kid,5,NA,4,tree,
NA,kid_17,17,NA,person kicking,12184.7,tangram,close,tangram-48.jpg,tangram-187.jpg,NA,31,65576185,kid,5,NA,14,kick,
NA,kid_17,17,NA,person walking in the street,9585.9,tangram,close,B1.jpg,P1.jpg,NA,32,65586275,kid,5,NA,28,walkinstreet,
NA,kid_17,17,NA,person sitting,8220.5,tangram,close,H1.jpg,I1.jpg,NA,33,65595002,kid,5,NA,14,sit,
NA,kid_17,17,NA,person running,7172.2,tangram,close,tangram-90.jpg,tangram-81.jpg,NA,34,65602679,kid,5,NA,14,run,
NA,kid_17,17,NA,person walking,15251.9,tangram,close,tangram-55.jpg,N1.jpg,NA,35,65618436,kid,5,NA,14,walk,
NA,kid_17,17,NA,dog,4532.9,familiar,close,germanshepherd.jpg,pug.jpg,NA,37,65637188,kid,5,NA,3,dog,0
NA,kid_17,17,NA,bird,4054.3,familiar,close,sparrow.jpg,eagle.jpg,NA,38,65641746,kid,5,NA,4,bird,0
NA,kid_17,17,NA,table,3680.2,familiar,close,diningtable.jpg,picnictable.jpg,NA,39,65645932,kid,5,NA,5,table,0
NA,kid_17,17,NA,car,4161.5,familiar,close,sedan.jpg,sportscar.jpg,NA,40,65650598,kid,5,NA,3,car,0
NA,kid_17,17,NA,jellybeans,8035.9,familiar,close,jellybeans.jpg,gummybears.jpg,NA,41,65659138,kid,5,NA,10,jellybeans,1
NA,kid_17,17,NA,shirt,4274.5,familiar,close,poloshirt.jpg,hawaiishirt.jpg,NA,42,65663915,kid,5,NA,5,shirt,0
NA,kid_17,17,NA,bear,3862.2,familiar,close,grizzlybear.jpg,polarbear.jpg,NA,43,65668283,kid,5,NA,4,bear,0
NA,kid_17,17,NA,fish,8076.8,familiar,close,goldfish.jpg,swordfish.jpg,NA,44,65676865,kid,5,NA,4,fish,0
NA,kid_17,17,NA,person sitting,19715.6,tangram,far,tangram-164.jpg,tangram-64.jpg,NA,46,65708424,kid,5,NA,14,sit,
NA,kid_17,17,NA,person running,7841,tangram,far,tangram-67.jpg,G1.jpg,NA,47,65716770,kid,5,NA,14,run,
NA,kid_17,17,NA,person walking,6430.9,tangram,far,B1.jpg,tangram-4.jpg,NA,48,65723708,kid,5,NA,14,walk,
NA,kid_17,17,NA,running away,9495.6,tangram,far,tangram-55.jpg,tangram-143.jpg,NA,49,65733708,kid,5,NA,12,runaway,
NA,kid_17,17,NA,girl,17290.9,tangram,far,A2.jpg,C1.jpg,NA,50,65751503,kid,5,NA,4,girl,
NA,kid_17,17,NA,person sitting,26292.6,tangram,far,H1.jpg,tangram-8.jpg,NA,51,65778301,kid,5,NA,14,sit,
NA,kid_17,17,NA,person walking,10766.8,tangram,far,tangram-48.jpg,D1.jpg,NA,52,65789574,kid,5,NA,14,walk,
NA,kid_17,17,NA,robot,14604.6,tangram,far,tangram-90.jpg,tangram-120.jpg,NA,53,65804682,kid,5,NA,5,robot,
NA,kid_17,17,NA,bird,7722.7,familiar,check,parrot.jpg,pigeon.jpg,NA,55,65858051,kid,5,0,4,bird,
NA,kid_17,17,NA,cup,7185.4,familiar,check,apple.jpg,pear.jpg,NA,56,65865741,kid,5,0,3,cup,
NA,kid_17,17,NA,shirt,7006.2,familiar,check,dressshirt.jpg,campshirt.jpg,NA,57,65873248,kid,5,0,5,shirt,
NA,kid_17,17,NA,table,7062.1,familiar,check,pug.jpg,rabbit.jpg,NA,58,65880814,kid,5,0,5,table,
NA,kid_17,17,NA,bear,6807.7,familiar,check,firetruck.jpg,ambulance.jpg,NA,59,65888124,kid,5,0,4,bear,
NA,kid_17,17,NA,m&ms,7410.1,familiar,check,mnms.jpg,gummybears.jpg,NA,60,65896036,kid,5,0,4,mnms,
NA,kid_17,17,NA,red flower,6742.5,familiar,check,rose.jpg,daisy.jpg,NA,61,65903281,kid,5,0,10,redflower,
NA,kid_17,17,NA,dog,8509.7,familiar,check,husky.jpg,dalmatian.jpg,NA,62,65912293,kid,5,0,3,dog,
NA,kid_17,17,NA,polar bear,10550.7,familiar,check,polarbear.jpg,grizzlybear.jpg,NA,63,65923345,kid,5,0,10,polarbear,
NA,kid_18,18,NA,bear,5086.6,familiar,far,grizzlybear.jpg,lion.jpg,NA,19,350433,kid,7,NA,4,bear,1
NA,kid_18,18,NA,dog,5002.8,familiar,far,germanshepherd.jpg,cow.jpg,NA,20,355943,kid,7,NA,3,dog,1
NA,kid_18,18,NA,jellybeans,6114.7,familiar,far,jellybeans.jpg,pretzels.jpg,NA,21,362564,kid,7,NA,10,jellybeans,1
NA,kid_18,18,NA,fish,4599.8,familiar,far,goldfish.jpg,iguana.jpg,NA,22,367666,kid,7,NA,4,fish,1
NA,kid_18,18,NA,shirt,3469.5,familiar,far,poloshirt.jpg,dress.jpg,NA,23,371638,kid,7,NA,5,shirt,1
NA,kid_18,18,NA,car,3745.1,familiar,far,sedan.jpg,firetruck.jpg,NA,24,375887,kid,7,NA,3,car,1
NA,kid_18,18,NA,bird,3106.5,familiar,far,sparrow.jpg,squirrel.jpg,NA,25,379499,kid,7,NA,4,bird,1
NA,kid_18,18,NA,table,3638.5,familiar,far,diningtable.jpg,wardrobe.jpg,NA,26,383641,kid,7,NA,5,table,1
NA,kid_18,18,NA,person,6987.8,tangram,far,tangram-90.jpg,tangram-120.jpg,NA,28,403639,kid,7,NA,6,person,
NA,kid_18,18,NA,person running,7424.2,tangram,far,tangram-55.jpg,tangram-143.jpg,NA,29,411567,kid,7,NA,14,run,
NA,kid_18,18,NA,person chopping wood,13192.8,tangram,far,A2.jpg,C1.jpg,NA,30,425266,kid,7,NA,20,chopwood,
NA,kid_18,18,NA,person pointing at something,9020.7,tangram,far,H1.jpg,tangram-8.jpg,NA,31,434793,kid,7,NA,28,point,
NA,kid_18,18,NA,someone kicking,5179.5,tangram,far,tangram-48.jpg,D1.jpg,NA,32,440478,kid,7,NA,15,kick,
NA,kid_18,18,NA,someone putting their leg up,14883,tangram,far,tangram-164.jpg,tangram-64.jpg,NA,33,455863,kid,7,NA,28,puttingtheirlegup,
NA,kid_18,18,NA,someone running,5301.7,tangram,far,tangram-67.jpg,G1.jpg,NA,34,461668,kid,7,NA,15,run,
NA,kid_18,18,NA,someone walking away,7036.2,tangram,far,B1.jpg,tangram-4.jpg,NA,35,469209,kid,7,NA,20,walkaway,
NA,kid_18,18,NA,table,3389.5,familiar,close,diningtable.jpg,picnictable.jpg,NA,37,481451,kid,7,NA,5,table,0
NA,kid_18,18,NA,bear,2928.2,familiar,close,grizzlybear.jpg,polarbear.jpg,NA,38,484885,kid,7,NA,4,bear,0
NA,kid_18,18,NA,car,2889.1,familiar,close,sedan.jpg,sportscar.jpg,NA,39,488279,kid,7,NA,3,car,0
NA,kid_18,18,NA,fish,3350.1,familiar,close,goldfish.jpg,swordfish.jpg,NA,40,492133,kid,7,NA,4,fish,0
NA,kid_18,18,NA,shirt,2863.4,familiar,close,poloshirt.jpg,hawaiishirt.jpg,NA,41,495502,kid,7,NA,5,shirt,0
NA,kid_18,18,NA,bird,3254.3,familiar,close,sparrow.jpg,eagle.jpg,NA,42,499259,kid,7,NA,4,bird,0
NA,kid_18,18,NA,jellybeans,4377.5,familiar,close,jellybeans.jpg,gummybears.jpg,NA,43,504139,kid,7,NA,10,jellybeans,1
NA,kid_18,18,NA,dog,2999.9,familiar,close,germanshepherd.jpg,pug.jpg,NA,44,507645,kid,7,NA,3,dog,0
NA,kid_18,18,NA,someone putting their feet up,7820.4,tangram,close,tangram-164.jpg,tangram-183.jpg,NA,46,525943,kid,7,NA,29,puttingtheirfootup,
NA,kid_18,18,NA,someone chopping wood,6394,tangram,close,A2.jpg,tangram-99.jpg,NA,47,532840,kid,7,NA,21,chopwood,
NA,kid_18,18,NA,someone running,5164.5,tangram,close,tangram-67.jpg,tangram-32.jpg,NA,48,538508,kid,7,NA,15,run,
NA,kid_18,18,NA,someone walking away,4812.3,tangram,close,B1.jpg,P1.jpg,NA,49,543823,kid,7,NA,20,walkaway,
NA,kid_18,18,NA,someone running really quickly,8016.9,tangram,close,tangram-55.jpg,N1.jpg,NA,50,552343,kid,7,NA,30,runreallyquickly,
NA,kid_18,18,NA,someone pointing at someone,6257.9,tangram,close,H1.jpg,I1.jpg,NA,51,559105,kid,7,NA,27,pointat,
NA,kid_18,18,NA,someone kicking,7986.9,tangram,close,tangram-48.jpg,tangram-187.jpg,NA,52,567594,kid,7,NA,15,kick,
NA,kid_18,18,NA,someone walking away,8143.5,tangram,close,tangram-90.jpg,tangram-81.jpg,NA,53,576244,kid,7,NA,20,walkaway,
NA,kid_18,18,NA,bird,7706.2,familiar,check,parrot.jpg,pigeon.jpg,NA,55,623594,kid,7,1,4,bird,
NA,kid_18,18,NA,red flower,6415.6,familiar,check,rose.jpg,daisy.jpg,NA,56,630512,kid,7,0,10,redflower,
NA,kid_18,18,NA,bear,9836,familiar,check,firetruck.jpg,ambulance.jpg,NA,57,640852,kid,7,1,4,bear,
NA,kid_18,18,NA,table,5576,familiar,check,pug.jpg,rabbit.jpg,NA,58,646934,kid,7,1,5,table,
NA,kid_18,18,NA,dog,5131,familiar,check,husky.jpg,dalmatian.jpg,NA,59,652567,kid,7,1,3,dog,
NA,kid_18,18,NA,shirt,7030,familiar,check,dressshirt.jpg,campshirt.jpg,NA,60,660100,kid,7,1,5,shirt,
NA,kid_18,18,NA,m&ms,6814.7,familiar,check,mnms.jpg,gummybears.jpg,NA,61,667419,kid,7,0,4,mnms,
NA,kid_18,18,NA,cup,6533.9,familiar,check,apple.jpg,pear.jpg,NA,62,674456,kid,7,1,3,cup,
NA,kid_18,18,NA,polar bear,8641.8,familiar,check,polarbear.jpg,grizzlybear.jpg,NA,63,683603,kid,7,0,10,polarbear,
NA,kid_19,19,NA,very big rectangle table,12561.9,familiar,close,diningtable.jpg,picnictable.jpg,NA,19,730996,kid,5,NA,24,verybigrectangletable,1
NA,kid_19,19,NA,brown bear,5889.5,familiar,close,grizzlybear.jpg,polarbear.jpg,NA,20,737400,kid,5,NA,10,brownbear,1
NA,kid_19,19,NA,blue car,6937.5,familiar,close,sedan.jpg,sportscar.jpg,NA,21,744847,kid,5,NA,8,bluecar,1
NA,kid_19,19,NA,jelly beans,7280.3,familiar,close,jellybeans.jpg,gummybears.jpg,NA,22,752635,kid,5,NA,11,jellybean,1
NA,kid_19,19,NA,teal shirt,7339.3,familiar,close,poloshirt.jpg,hawaiishirt.jpg,NA,23,760503,kid,5,NA,10,tealshirt,1
NA,kid_19,19,NA,a bird,5680.2,familiar,close,sparrow.jpg,eagle.jpg,NA,24,766706,kid,5,NA,6,bird,0
NA,kid_19,19,NA,puppy,9138,familiar,close,germanshepherd.jpg,pug.jpg,NA,25,776379,kid,5,NA,5,puppy,0
NA,kid_19,19,NA,orange fish,8545.7,familiar,close,goldfish.jpg,swordfish.jpg,NA,26,785429,kid,5,NA,11,orangefish,1
NA,kid_19,19,NA,black diamond on top of a statue,18207.2,tangram,far,H1.jpg,tangram-8.jpg,NA,28,815230,kid,5,NA,32,blackdiamondontopofastatue,
NA,kid_19,19,NA,black square on a statue,20923,tangram,far,tangram-164.jpg,tangram-64.jpg,NA,29,836666,kid,5,NA,24,blacksquareonastatue,
NA,kid_19,19,NA,"diamond on a statue, shape like triangle legs",19508.4,tangram,far,A2.jpg,C1.jpg,NA,30,856717,kid,5,NA,45,"diamondonastatue,shapeliketriangleleg",
NA,kid_19,19,NA,square,8269.2,tangram,far,tangram-55.jpg,tangram-143.jpg,NA,31,865500,kid,5,NA,6,square,
NA,kid_19,19,NA,little diamond on a statue,13433.9,tangram,far,tangram-67.jpg,G1.jpg,NA,32,879447,kid,5,NA,26,littlediamondonastatue,
NA,kid_19,19,NA,square on a statue,11870.3,tangram,far,tangram-48.jpg,D1.jpg,NA,33,891823,kid,5,NA,18,squareonastatue,
NA,kid_19,19,NA,square on another statue with triangle legs,14137,tangram,far,tangram-90.jpg,tangram-120.jpg,NA,34,906485,kid,5,NA,43,squareonanotherstatuewithtriangleleg,
NA,kid_19,19,NA,square on a statue,9669.3,tangram,far,B1.jpg,tangram-4.jpg,NA,35,916670,kid,5,NA,18,squareonastatue,
NA,kid_19,19,NA,puppy,6329.6,familiar,far,germanshepherd.jpg,cow.jpg,NA,37,931261,kid,5,NA,5,puppy,1
NA,kid_19,19,NA,big table rectangle,12606.8,familiar,far,diningtable.jpg,wardrobe.jpg,NA,38,944381,kid,5,NA,19,bigtablerectangle,2
NA,kid_19,19,NA,bird,7145.2,familiar,far,sparrow.jpg,squirrel.jpg,NA,39,952036,kid,5,NA,4,bird,1
NA,kid_19,19,NA,orange fish,6835.6,familiar,far,goldfish.jpg,iguana.jpg,NA,40,959382,kid,5,NA,11,orangefish,2
NA,kid_19,19,NA,brown bear,7259.7,familiar,far,grizzlybear.jpg,lion.jpg,NA,41,967155,kid,5,NA,10,brownbear,2
NA,kid_19,19,NA,jelly beans,8235.9,familiar,far,jellybeans.jpg,pretzels.jpg,NA,42,975895,kid,5,NA,11,jellybean,1
NA,kid_19,19,NA,blue car,7060.9,familiar,far,sedan.jpg,firetruck.jpg,NA,43,983490,kid,5,NA,8,bluecar,2
NA,kid_19,19,NA,teal shirt,6515.3,familiar,far,poloshirt.jpg,dress.jpg,NA,44,990519,kid,5,NA,10,tealshirt,2
NA,kid_19,19,NA,square with triangle legs,12899.8,tangram,close,B1.jpg,P1.jpg,NA,46,1012006,kid,5,NA,25,squarewithtriangleleg,
NA,kid_19,19,NA,square with triangle legs,12292.3,tangram,close,tangram-164.jpg,tangram-183.jpg,NA,47,1024830,kid,5,NA,25,squarewithtriangleleg,
NA,kid_19,19,NA,diamond on a statue,8556.3,tangram,close,H1.jpg,I1.jpg,NA,48,1033899,kid,5,NA,19,diamondonastatue,
NA,kid_19,19,NA,square with triangle legs,14870.3,tangram,close,tangram-55.jpg,N1.jpg,NA,49,1049292,kid,5,NA,25,squarewithtriangleleg,
NA,kid_19,19,NA,square,8295.2,tangram,close,tangram-48.jpg,tangram-187.jpg,NA,50,1058104,kid,5,NA,6,square,
NA,kid_19,19,NA,square with triangle legs,10855.8,tangram,close,tangram-90.jpg,tangram-81.jpg,NA,51,1069469,kid,5,NA,25,squarewithtriangleleg,
NA,kid_19,19,NA,diamond on a statue,12149.7,tangram,close,tangram-67.jpg,tangram-32.jpg,NA,52,1082133,kid,5,NA,19,diamondonastatue,
NA,kid_19,19,NA,square and triangle legs,10612.6,tangram,close,A2.jpg,tangram-99.jpg,NA,53,1093264,kid,5,NA,24,squareandtriangleleg,
NA,kid_19,19,NA,bear,20275.5,familiar,check,firetruck.jpg,ambulance.jpg,NA,55,1148833,kid,5,1,4,bear,
NA,kid_19,19,NA,dog,17964.4,familiar,check,husky.jpg,dalmatian.jpg,NA,56,1167317,kid,5,0,3,dog,
NA,kid_19,19,NA,shirt,15288,familiar,check,dressshirt.jpg,campshirt.jpg,NA,57,1183121,kid,5,0,5,shirt,
NA,kid_19,19,NA,bird,7481.6,familiar,check,parrot.jpg,pigeon.jpg,NA,58,1191114,kid,5,1,4,bird,
NA,kid_19,19,NA,m&ms,8931.9,familiar,check,mnms.jpg,gummybears.jpg,NA,59,1200553,kid,5,0,4,mnms,
NA,kid_19,19,NA,red flower,8038.1,familiar,check,rose.jpg,daisy.jpg,NA,60,1209093,kid,5,0,10,redflower,
NA,kid_19,19,NA,table,7927.4,familiar,check,pug.jpg,rabbit.jpg,NA,61,1217525,kid,5,1,5,table,
NA,kid_19,19,NA,cup,17395.3,familiar,check,apple.jpg,pear.jpg,NA,62,1235441,kid,5,1,3,cup,
NA,kid_19,19,NA,polar bear,25197.3,familiar,check,polarbear.jpg,grizzlybear.jpg,NA,63,1261145,kid,5,0,10,polarbear,
NA,kid_2,2,NA,table,6966.7,familiar,far,diningtable.jpg,wardrobe.jpg,NA,19,407800,kid,6,NA,5,table,1
NA,kid_2,2,NA,bird,5899.4,familiar,far,sparrow.jpg,squirrel.jpg,NA,20,414206,kid,6,NA,4,bird,1
NA,kid_2,2,NA,car,5219.7,familiar,far,sedan.jpg,firetruck.jpg,NA,21,419931,kid,6,NA,3,car,1
NA,kid_2,2,NA,fish,5620.4,familiar,far,goldfish.jpg,iguana.jpg,NA,22,426061,kid,6,NA,4,fish,1
NA,kid_2,2,NA,jellybeans,6010.9,familiar,far,jellybeans.jpg,pretzels.jpg,NA,23,432579,kid,6,NA,10,jellybeans,1
NA,kid_2,2,NA,cyote,7113,familiar,far,germanshepherd.jpg,cow.jpg,NA,24,440197,kid,6,NA,5,cyote,1
NA,kid_2,2,NA,blue shirt,8834.6,familiar,far,poloshirt.jpg,dress.jpg,NA,25,449537,kid,6,NA,10,blueshirt,2
NA,kid_2,2,NA,bear,4700.8,familiar,far,grizzlybear.jpg,lion.jpg,NA,26,454743,kid,6,NA,4,bear,1
NA,kid_2,2,NA,a man holding a pot,25996.2,tangram,close,H1.jpg,I1.jpg,NA,28,495408,kid,6,NA,19,manholdpot,
NA,kid_2,2,NA,man running,11022,tangram,close,tangram-48.jpg,tangram-187.jpg,NA,29,506934,kid,6,NA,11,manrun,
NA,kid_2,2,NA,man dancing,8903.9,tangram,close,tangram-164.jpg,tangram-183.jpg,NA,30,516344,kid,6,NA,11,mandance,
NA,kid_2,2,NA,man walking,8830.4,tangram,close,B1.jpg,P1.jpg,NA,31,525680,kid,6,NA,11,manwalk,
NA,kid_2,2,NA,man running,7896.4,tangram,close,tangram-55.jpg,N1.jpg,NA,32,534086,kid,6,NA,11,manrun,
NA,kid_2,2,NA,man running with his arms out,13436.2,tangram,close,tangram-90.jpg,tangram-81.jpg,NA,33,548029,kid,6,NA,29,manrunarmout,
NA,kid_2,2,NA,woman dancing,13295.9,tangram,close,A2.jpg,tangram-99.jpg,NA,34,561830,kid,6,NA,13,womandance,
NA,kid_2,2,NA,woman running,10524,tangram,close,tangram-67.jpg,tangram-32.jpg,NA,35,572860,kid,6,NA,13,womanrun,
NA,kid_2,2,NA,blue shirt,6672.5,familiar,close,poloshirt.jpg,hawaiishirt.jpg,NA,37,592094,kid,6,NA,10,blueshirt,1
NA,kid_2,2,NA,a bird,4522.8,familiar,close,sparrow.jpg,eagle.jpg,NA,38,597124,kid,6,NA,6,bird,0
NA,kid_2,2,NA,a long table,7425.3,familiar,close,diningtable.jpg,picnictable.jpg,NA,39,605056,kid,6,NA,12,longtable,1
NA,kid_2,2,NA,goldfish,7530,familiar,close,goldfish.jpg,swordfish.jpg,NA,40,613094,kid,6,NA,8,goldfish,1
NA,kid_2,2,NA,grizzly bear,12683.4,familiar,close,grizzlybear.jpg,polarbear.jpg,NA,41,626285,kid,6,NA,12,grizzlybear,1
NA,kid_2,2,NA,jellybeans,7471,familiar,close,jellybeans.jpg,gummybears.jpg,NA,42,634263,kid,6,NA,10,jellybeans,1
NA,kid_2,2,NA,blue car,10230,familiar,close,sedan.jpg,sportscar.jpg,NA,43,645001,kid,6,NA,8,bluecar,1
NA,kid_2,2,NA,cyote,8172.7,familiar,close,germanshepherd.jpg,pug.jpg,NA,44,653679,kid,6,NA,5,coyote,1
NA,kid_2,2,NA,man walking,6066.4,tangram,far,B1.jpg,tangram-4.jpg,NA,46,671583,kid,6,NA,11,manwalk,
NA,kid_2,2,NA,man dancing,6729.7,tangram,far,tangram-164.jpg,tangram-64.jpg,NA,47,678822,kid,6,NA,11,mandance,
NA,kid_2,2,NA,man running with his arms out,9236.9,tangram,far,tangram-90.jpg,tangram-120.jpg,NA,48,688566,kid,6,NA,29,manrunarmout,
NA,kid_2,2,NA,a woman running with her hanging behind her,19188.6,tangram,far,A2.jpg,C1.jpg,NA,49,708262,kid,6,NA,43,womanrunhangbehindher,
NA,kid_2,2,NA,a man skipping,10353.8,tangram,far,tangram-48.jpg,D1.jpg,NA,50,719126,kid,6,NA,14,manskip,
NA,kid_2,2,NA,a woman holding a pot,11363.7,tangram,far,H1.jpg,tangram-8.jpg,NA,51,730997,kid,6,NA,21,womanholdpot,
NA,kid_2,2,NA,a man running,7198.8,tangram,far,tangram-55.jpg,tangram-143.jpg,NA,52,738703,kid,6,NA,13,manrun,
NA,kid_2,2,NA,a woman running with her arms out,8002.3,tangram,far,tangram-67.jpg,G1.jpg,NA,53,747214,kid,6,NA,33,womanrunarmout,
NA,kid_2,2,NA,bear,14128.5,familiar,check,firetruck.jpg,ambulance.jpg,NA,55,809839,kid,6,1,4,bear,
NA,kid_2,2,NA,m&ms,8026.6,familiar,check,mnms.jpg,gummybears.jpg,NA,56,818373,kid,6,0,4,mnms,
NA,kid_2,2,NA,dog,25927,familiar,check,husky.jpg,dalmatian.jpg,NA,57,844805,kid,6,1,3,dog,
NA,kid_2,2,NA,cup,6059.3,familiar,check,apple.jpg,pear.jpg,NA,58,851369,kid,6,1,3,cup,
NA,kid_2,2,NA,polar bear,6446.6,familiar,check,polarbear.jpg,grizzlybear.jpg,NA,59,858322,kid,6,0,10,polarbear,
NA,kid_2,2,NA,table,6981.4,familiar,check,pug.jpg,rabbit.jpg,NA,60,865809,kid,6,1,5,table,
NA,kid_2,2,NA,bird,6849,familiar,check,parrot.jpg,pigeon.jpg,NA,61,873164,kid,6,1,4,bird,
NA,kid_2,2,NA,shirt,7178,familiar,check,dressshirt.jpg,campshirt.jpg,NA,62,880845,kid,6,1,5,shirt,
NA,kid_2,2,NA,red flower,6463.1,familiar,check,rose.jpg,daisy.jpg,NA,63,887812,kid,6,0,10,redflower,
NA,kid_20,20,NA,bear,6265,familiar,far,grizzlybear.jpg,lion.jpg,NA,19,702161,kid,5,NA,4,bear,1
NA,kid_20,20,NA,gummies,6066.5,familiar,far,jellybeans.jpg,pretzels.jpg,NA,20,708747,kid,5,NA,7,gummies,1
NA,kid_20,20,NA,fish,5633.7,familiar,far,goldfish.jpg,iguana.jpg,NA,21,714900,kid,5,NA,4,fish,1
NA,kid_20,20,NA,tshirt,6767.4,familiar,far,poloshirt.jpg,dress.jpg,NA,22,722178,kid,5,NA,6,tshirt,1
NA,kid_20,20,NA,bird,4847.4,familiar,far,sparrow.jpg,squirrel.jpg,NA,23,727551,kid,5,NA,4,bird,1
NA,kid_20,20,NA,table,7349.5,familiar,far,diningtable.jpg,wardrobe.jpg,NA,24,735411,kid,5,NA,5,table,1
NA,kid_20,20,NA,car,5634.9,familiar,far,sedan.jpg,firetruck.jpg,NA,25,741566,kid,5,NA,3,car,1
NA,kid_20,20,NA,dog or coyote,10355,familiar,far,germanshepherd.jpg,cow.jpg,NA,26,752435,kid,5,NA,13,dogorcoyote,1
NA,kid_20,20,NA,rabbit,6007.6,tangram,far,A2.jpg,C1.jpg,NA,28,768804,kid,5,NA,6,rabbit,
NA,kid_20,20,NA,person,4928.6,tangram,far,tangram-48.jpg,D1.jpg,NA,29,774239,kid,5,NA,6,person,
NA,kid_20,20,NA,sad person,6103.1,tangram,far,B1.jpg,tangram-4.jpg,NA,30,780855,kid,5,NA,10,sad,
NA,kid_20,20,NA,person or superhero,31212.6,tangram,far,tangram-90.jpg,tangram-120.jpg,NA,31,812577,kid,5,NA,19,superhero,
NA,kid_20,20,NA,runner,5078.1,tangram,far,tangram-55.jpg,tangram-143.jpg,NA,32,818170,kid,5,NA,6,runner,
NA,kid_20,20,NA,drink water,17002.8,tangram,far,H1.jpg,tangram-8.jpg,NA,33,835692,kid,5,NA,11,drinkwater,
NA,kid_20,20,NA,runner,6295.1,tangram,far,tangram-67.jpg,G1.jpg,NA,34,842503,kid,5,NA,6,runner,
NA,kid_20,20,NA,person sitting,6476.7,tangram,far,tangram-164.jpg,tangram-64.jpg,NA,35,849492,kid,5,NA,14,sit,
NA,kid_20,20,NA,bear,4960.3,familiar,close,grizzlybear.jpg,polarbear.jpg,NA,37,864398,kid,5,NA,4,bear,0
NA,kid_20,20,NA,bird,4412.3,familiar,close,sparrow.jpg,eagle.jpg,NA,38,869323,kid,5,NA,4,bird,0
NA,kid_20,20,NA,gummies,5444.1,familiar,close,jellybeans.jpg,gummybears.jpg,NA,39,875280,kid,5,NA,7,gummies,0
NA,kid_20,20,NA,blue shirt,6779.9,familiar,close,poloshirt.jpg,hawaiishirt.jpg,NA,40,882572,kid,5,NA,10,blueshirt,1
NA,kid_20,20,NA,goldfish,8000.9,familiar,close,goldfish.jpg,swordfish.jpg,NA,41,891097,kid,5,NA,8,goldfish,1
NA,kid_20,20,NA,coyote,5946.5,familiar,close,germanshepherd.jpg,pug.jpg,NA,42,897564,kid,5,NA,6,coyote,1
NA,kid_20,20,NA,blue car,5823.2,familiar,close,sedan.jpg,sportscar.jpg,NA,43,903908,kid,5,NA,8,bluecar,1
NA,kid_20,20,NA,table,6655.2,familiar,close,diningtable.jpg,picnictable.jpg,NA,44,911084,kid,5,NA,5,table,0
NA,kid_20,20,NA,person walking,7784.8,tangram,close,B1.jpg,P1.jpg,NA,46,932090,kid,5,NA,14,walk,
NA,kid_20,20,NA,person walking,12349.6,tangram,close,A2.jpg,tangram-99.jpg,NA,47,944947,kid,5,NA,14,walk,
NA,kid_20,20,NA,person walking,8523.7,tangram,close,tangram-48.jpg,tangram-187.jpg,NA,48,953980,kid,5,NA,14,walk,
NA,kid_20,20,NA,drinking water,14075.1,tangram,close,H1.jpg,I1.jpg,NA,49,968559,kid,5,NA,14,drinkwater,
NA,kid_20,20,NA,runner,4883.4,tangram,close,tangram-90.jpg,tangram-81.jpg,NA,50,973956,kid,5,NA,6,runner,
NA,kid_20,20,NA,person sitting,6798.1,tangram,close,tangram-164.jpg,tangram-183.jpg,NA,51,981276,kid,5,NA,14,sit,
NA,kid_20,20,NA,runner,4425.2,tangram,close,tangram-55.jpg,N1.jpg,NA,52,986213,kid,5,NA,6,runner,
NA,kid_20,20,NA,runner,4076,tangram,close,tangram-67.jpg,tangram-32.jpg,NA,53,990809,kid,5,NA,6,runner,
NA,kid_20,20,NA,shirt,9677.1,familiar,check,dressshirt.jpg,campshirt.jpg,NA,55,1037842,kid,5,1,5,shirt,
NA,kid_20,20,NA,cup,13487.3,familiar,check,apple.jpg,pear.jpg,NA,56,1051835,kid,5,1,3,cup,
NA,kid_20,20,NA,bird,8041.3,familiar,check,parrot.jpg,pigeon.jpg,NA,57,1060384,kid,5,0,4,bird,
NA,kid_20,20,NA,bear,6374.4,familiar,check,firetruck.jpg,ambulance.jpg,NA,58,1067275,kid,5,1,4,bear,
NA,kid_20,20,NA,table,7083.8,familiar,check,pug.jpg,rabbit.jpg,NA,59,1074871,kid,5,1,5,table,
NA,kid_20,20,NA,m&ms,6621,familiar,check,mnms.jpg,gummybears.jpg,NA,60,1082003,kid,5,0,4,mnms,
NA,kid_20,20,NA,polar bear,8277.3,familiar,check,polarbear.jpg,grizzlybear.jpg,NA,61,1090796,kid,5,0,10,polarbear,
NA,kid_20,20,NA,red flower,7462,familiar,check,rose.jpg,daisy.jpg,NA,62,1098763,kid,5,0,10,redflower,
NA,kid_20,20,NA,dog,8145.5,familiar,check,husky.jpg,dalmatian.jpg,NA,63,1107412,kid,5,0,3,dog,
NA,kid_21,21,NA,bird,4869.2,familiar,far,sparrow.jpg,squirrel.jpg,NA,19,203389,kid,7,NA,4,bird,1
NA,kid_21,21,NA,bear,4990.4,familiar,far,grizzlybear.jpg,lion.jpg,NA,20,208893,kid,7,NA,4,bear,1
NA,kid_21,21,NA,dog,3628,familiar,far,germanshepherd.jpg,cow.jpg,NA,21,213043,kid,7,NA,3,dog,1
NA,kid_21,21,NA,blue car,4678.3,familiar,far,sedan.jpg,firetruck.jpg,NA,22,218239,kid,7,NA,8,bluecar,2
NA,kid_21,21,NA,goldfidh,6858.8,familiar,far,goldfish.jpg,iguana.jpg,NA,23,225640,kid,7,NA,8,goldfidh,1
NA,kid_21,21,NA,table,4439.7,familiar,far,diningtable.jpg,wardrobe.jpg,NA,24,230593,kid,7,NA,5,table,1
NA,kid_21,21,NA,jelly beans,4453.5,familiar,far,jellybeans.jpg,pretzels.jpg,NA,25,235563,kid,7,NA,11,jellybean,1
NA,kid_21,21,NA,tshirt,4147.8,familiar,far,poloshirt.jpg,dress.jpg,NA,26,240239,kid,7,NA,6,tshirt,1
NA,kid_21,21,NA,person,9520,tangram,far,B1.jpg,tangram-4.jpg,NA,28,260212,kid,7,NA,6,person,
NA,kid_21,21,NA,house,8168.2,tangram,far,H1.jpg,tangram-8.jpg,NA,29,268894,kid,7,NA,5,house,
NA,kid_21,21,NA,person that's running,5749.9,tangram,far,tangram-55.jpg,tangram-143.jpg,NA,30,275161,kid,7,NA,21,run,
NA,kid_21,21,NA,a tree,18801.6,tangram,far,A2.jpg,C1.jpg,NA,31,294498,kid,7,NA,6,tree,
NA,kid_21,21,NA,person,4779.8,tangram,far,tangram-90.jpg,tangram-120.jpg,NA,32,299794,kid,7,NA,6,person,
NA,kid_21,21,NA,person that's sitting,6412.6,tangram,far,tangram-164.jpg,tangram-64.jpg,NA,33,306733,kid,7,NA,21,sit,
NA,kid_21,21,NA,person that's kicking something,7186.3,tangram,far,tangram-48.jpg,D1.jpg,NA,34,314424,kid,7,NA,31,kick,
NA,kid_21,21,NA,person that's jumping,9951.8,tangram,far,tangram-67.jpg,G1.jpg,NA,35,324902,kid,7,NA,21,jump,
NA,kid_21,21,NA,tiny bird,5702.3,familiar,close,sparrow.jpg,eagle.jpg,NA,37,339329,kid,7,NA,9,tinybird,1
NA,kid_21,21,NA,big dog,4166.4,familiar,close,germanshepherd.jpg,pug.jpg,NA,38,344016,kid,7,NA,7,bigdog,1
NA,kid_21,21,NA,jelly beans,4101.8,familiar,close,jellybeans.jpg,gummybears.jpg,NA,39,348635,kid,7,NA,11,jellybean,1
NA,kid_21,21,NA,brown bear,5241.5,familiar,close,grizzlybear.jpg,polarbear.jpg,NA,40,354401,kid,7,NA,10,brownbear,1
NA,kid_21,21,NA,rectangle table,7310.3,familiar,close,diningtable.jpg,picnictable.jpg,NA,41,362229,kid,7,NA,15,rectangletable,1
NA,kid_21,21,NA,goldfish,4649.3,familiar,close,goldfish.jpg,swordfish.jpg,NA,42,367400,kid,7,NA,8,goldfish,1
NA,kid_21,21,NA,blue tshirt,6208.9,familiar,close,poloshirt.jpg,hawaiishirt.jpg,NA,43,374129,kid,7,NA,11,bluetshirt,1
NA,kid_21,21,NA,blue car,5497.8,familiar,close,sedan.jpg,sportscar.jpg,NA,44,380143,kid,7,NA,8,bluecar,1
NA,kid_21,21,NA,person that's walking,6277.4,tangram,close,B1.jpg,P1.jpg,NA,46,395418,kid,7,NA,21,walk,
NA,kid_21,21,NA,person that's running,6376.7,tangram,close,tangram-90.jpg,tangram-81.jpg,NA,47,402317,kid,7,NA,21,run,
NA,kid_21,21,NA,person that's jumping and running,8517.5,tangram,close,tangram-55.jpg,N1.jpg,NA,48,411346,kid,7,NA,33,jumpandrun,
NA,kid_21,21,NA,person that's sitting,6071.9,tangram,close,tangram-164.jpg,tangram-183.jpg,NA,49,417931,kid,7,NA,21,sit,
NA,kid_21,21,NA,person that's jogging,6244.2,tangram,close,tangram-67.jpg,tangram-32.jpg,NA,50,424681,kid,7,NA,21,jog,
NA,kid_21,21,NA,person that's kicking,5817.7,tangram,close,tangram-48.jpg,tangram-187.jpg,NA,51,431012,kid,7,NA,21,kick,
NA,kid_21,21,NA,person sitting doing some work,34893.9,tangram,close,H1.jpg,I1.jpg,NA,52,466436,kid,7,NA,30,sitdosomework,
NA,kid_21,21,NA,lady that's walking,9170.8,tangram,close,A2.jpg,tangram-99.jpg,NA,53,476136,kid,7,NA,19,ladywalk,
NA,kid_21,21,NA,table,10262.8,familiar,check,pug.jpg,rabbit.jpg,NA,55,516651,kid,7,1,5,table,
NA,kid_21,21,NA,m&ms,6935.1,familiar,check,mnms.jpg,gummybears.jpg,NA,56,524116,kid,7,0,4,mnms,
NA,kid_21,21,NA,bird,5949.3,familiar,check,parrot.jpg,pigeon.jpg,NA,57,530571,kid,7,1,4,bird,
NA,kid_21,21,NA,shirt,5885.7,familiar,check,dressshirt.jpg,campshirt.jpg,NA,58,536965,kid,7,1,5,shirt,
NA,kid_21,21,NA,cup,5859.2,familiar,check,apple.jpg,pear.jpg,NA,59,543330,kid,7,1,3,cup,
NA,kid_21,21,NA,red flower,5922.9,familiar,check,rose.jpg,daisy.jpg,NA,60,549770,kid,7,0,10,redflower,
NA,kid_21,21,NA,bear,5866.5,familiar,check,firetruck.jpg,ambulance.jpg,NA,61,556142,kid,7,1,4,bear,
NA,kid_21,21,NA,dog,5856.1,familiar,check,husky.jpg,dalmatian.jpg,NA,62,562522,kid,7,1,3,dog,
NA,kid_21,21,NA,polar bear,6155.3,familiar,check,polarbear.jpg,grizzlybear.jpg,NA,63,569197,kid,7,0,10,polarbear,
NA,kid_22,22,NA,blue car,5652.5,familiar,close,sedan.jpg,sportscar.jpg,NA,19,218809,kid,6,NA,8,bluecar,1
NA,kid_22,22,NA,fish,5240.6,familiar,close,goldfish.jpg,swordfish.jpg,NA,20,224570,kid,6,NA,4,fish,0
NA,kid_22,22,NA,jelly beans,4922.5,familiar,close,jellybeans.jpg,gummybears.jpg,NA,21,230002,kid,6,NA,11,jellybean,1
NA,kid_22,22,NA,stretching dog,21174.4,familiar,close,germanshepherd.jpg,pug.jpg,NA,22,251692,kid,6,NA,14,stretchdog,1
NA,kid_22,22,NA,bear,6162.1,familiar,close,grizzlybear.jpg,polarbear.jpg,NA,23,258362,kid,6,NA,4,bear,0
NA,kid_22,22,NA,bird,3968.9,familiar,close,sparrow.jpg,eagle.jpg,NA,24,262847,kid,6,NA,4,bird,0
NA,kid_22,22,NA,blue shirt,5566.4,familiar,close,poloshirt.jpg,hawaiishirt.jpg,NA,25,268937,kid,6,NA,10,blueshirt,1
NA,kid_22,22,NA,table with no seats,8370,familiar,close,diningtable.jpg,picnictable.jpg,NA,26,277811,kid,6,NA,19,tablewithnoseat,1
NA,kid_22,22,NA,person running,8122.7,tangram,far,tangram-55.jpg,tangram-143.jpg,NA,28,294731,kid,6,NA,14,run,
NA,kid_22,22,NA,person walking,6555.2,tangram,far,A2.jpg,C1.jpg,NA,29,301797,kid,6,NA,14,walk,
NA,kid_22,22,NA,person running really fast,11219.4,tangram,far,tangram-67.jpg,G1.jpg,NA,30,313541,kid,6,NA,26,runreallyfast,
NA,kid_22,22,NA,person kicking,7276.2,tangram,far,tangram-48.jpg,D1.jpg,NA,31,321347,kid,6,NA,14,kick,
NA,kid_22,22,NA,person stretching,7547.6,tangram,far,tangram-90.jpg,tangram-120.jpg,NA,32,329404,kid,6,NA,17,stretch,
NA,kid_22,22,NA,person resting,7086,tangram,far,H1.jpg,tangram-8.jpg,NA,33,336997,kid,6,NA,14,rest,
NA,kid_22,22,NA,person looking sad walking,10575.8,tangram,far,B1.jpg,tangram-4.jpg,NA,34,348098,kid,6,NA,26,looksadwalk,
NA,kid_22,22,NA,person sitting,6609.3,tangram,far,tangram-164.jpg,tangram-64.jpg,NA,35,355221,kid,6,NA,14,sit,
NA,kid_22,22,NA,bird,4106.3,familiar,far,sparrow.jpg,squirrel.jpg,NA,37,367266,kid,6,NA,4,bird,1
NA,kid_22,22,NA,bear,4452.3,familiar,far,grizzlybear.jpg,lion.jpg,NA,38,372227,kid,6,NA,4,bear,1
NA,kid_22,22,NA,blue shirt,4400.4,familiar,far,poloshirt.jpg,dress.jpg,NA,39,377142,kid,6,NA,10,blueshirt,2
NA,kid_22,22,NA,stretching dog,5078.6,familiar,far,germanshepherd.jpg,cow.jpg,NA,40,382752,kid,6,NA,14,stretchdog,2
NA,kid_22,22,NA,jelly beans,4836.6,familiar,far,jellybeans.jpg,pretzels.jpg,NA,41,388099,kid,6,NA,11,jellybean,1
NA,kid_22,22,NA,fish,2953.4,familiar,far,goldfish.jpg,iguana.jpg,NA,42,391571,kid,6,NA,4,fish,1
NA,kid_22,22,NA,blue car,3965.7,familiar,far,sedan.jpg,firetruck.jpg,NA,43,396060,kid,6,NA,8,bluecar,2
NA,kid_22,22,NA,table,3665.1,familiar,far,diningtable.jpg,wardrobe.jpg,NA,44,400244,kid,6,NA,5,table,1
NA,kid_22,22,NA,person running,11614.4,tangram,close,A2.jpg,tangram-99.jpg,NA,46,420655,kid,6,NA,14,run,
NA,kid_22,22,NA,person running really fast,6825.9,tangram,close,tangram-90.jpg,tangram-81.jpg,NA,47,427996,kid,6,NA,26,runreallyfast,
NA,kid_22,22,NA,person kicking,5484.5,tangram,close,tangram-48.jpg,tangram-187.jpg,NA,48,433989,kid,6,NA,14,kick,
NA,kid_22,22,NA,person running really really fast,8346.1,tangram,close,tangram-67.jpg,tangram-32.jpg,NA,49,442855,kid,6,NA,33,runreallyreallyfast,
NA,kid_22,22,NA,person sad and walking,7517.5,tangram,close,B1.jpg,P1.jpg,NA,50,450889,kid,6,NA,22,sadandwalk,
NA,kid_22,22,NA,person sitting,5400.3,tangram,close,tangram-164.jpg,tangram-183.jpg,NA,51,456814,kid,6,NA,14,sit,
NA,kid_22,22,NA,person running with head ahead,14310.3,tangram,close,tangram-55.jpg,N1.jpg,NA,52,471633,kid,6,NA,30,runwithheadahead,
NA,kid_22,22,NA,person resting,6138.6,tangram,close,H1.jpg,I1.jpg,NA,53,478316,kid,6,NA,14,rest,
NA,kid_22,22,NA,dog,10630.1,familiar,check,husky.jpg,dalmatian.jpg,NA,55,519017,kid,6,1,3,dog,
NA,kid_22,22,NA,bird,6544.1,familiar,check,parrot.jpg,pigeon.jpg,NA,56,526065,kid,6,0,4,bird,
NA,kid_22,22,NA,polar bear,7400.3,familiar,check,polarbear.jpg,grizzlybear.jpg,NA,57,533970,kid,6,1,10,polarbear,
NA,kid_22,22,NA,bear,6240.3,familiar,check,firetruck.jpg,ambulance.jpg,NA,58,540720,kid,6,0,4,bear,
NA,kid_22,22,NA,cup,9610.4,familiar,check,apple.jpg,pear.jpg,NA,59,550843,kid,6,0,3,cup,
NA,kid_22,22,NA,table,8639.1,familiar,check,pug.jpg,rabbit.jpg,NA,60,559989,kid,6,0,5,table,
NA,kid_22,22,NA,shirt,6564.6,familiar,check,dressshirt.jpg,campshirt.jpg,NA,61,567065,kid,6,1,5,shirt,
NA,kid_22,22,NA,m&ms,5865.4,familiar,check,mnms.jpg,gummybears.jpg,NA,62,573476,kid,6,1,4,mnms,
NA,kid_22,22,NA,red flower,6467.2,familiar,check,rose.jpg,daisy.jpg,NA,63,580468,kid,6,1,10,redflower,
NA,kid_23,23,NA,jellybeans,6404.9,familiar,close,jellybeans.jpg,gummybears.jpg,NA,19,1386779,kid,5,NA,10,jellybeans,1
NA,kid_23,23,NA,gray bird,10621.8,familiar,close,sparrow.jpg,eagle.jpg,NA,20,1397905,kid,5,NA,9,graybird,1
NA,kid_23,23,NA,bear,7954.3,familiar,close,grizzlybear.jpg,polarbear.jpg,NA,21,1406362,kid,5,NA,4,bear,0
NA,kid_23,23,NA,blue car,6853.5,familiar,close,sedan.jpg,sportscar.jpg,NA,22,1413719,kid,5,NA,8,bluecar,1
NA,kid_23,23,NA,kitchen table,6803.8,familiar,close,diningtable.jpg,picnictable.jpg,NA,23,1421025,kid,5,NA,13,kitchentable,1
NA,kid_23,23,NA,big dog,8274.6,familiar,close,germanshepherd.jpg,pug.jpg,NA,24,1429804,kid,5,NA,7,bigdog,1
NA,kid_23,23,NA,blue shirt,5350.2,familiar,close,poloshirt.jpg,hawaiishirt.jpg,NA,25,1435658,kid,5,NA,10,blueshirt,1
NA,kid_23,23,NA,orange fish,5423.9,familiar,close,goldfish.jpg,swordfish.jpg,NA,26,1441586,kid,5,NA,11,orangefish,1
NA,kid_23,23,NA,triangle with more triangles,13268.3,tangram,close,tangram-90.jpg,tangram-81.jpg,NA,28,1468336,kid,5,NA,28,trianglewithmuchtriangle,
NA,kid_23,23,NA,world map,11249.5,tangram,close,tangram-67.jpg,tangram-32.jpg,NA,29,1480088,kid,5,NA,9,worldmap,
NA,kid_23,23,NA,world map,8752.6,tangram,close,tangram-48.jpg,tangram-187.jpg,NA,30,1489343,kid,5,NA,9,worldmap,
NA,kid_23,23,NA,world map,7839.8,tangram,close,A2.jpg,tangram-99.jpg,NA,31,1497687,kid,5,NA,9,worldmap,
NA,kid_23,23,NA,world map,6017.2,tangram,close,tangram-164.jpg,tangram-183.jpg,NA,32,1504207,kid,5,NA,9,worldmap,
NA,kid_23,23,NA,world map,10677.2,tangram,close,H1.jpg,I1.jpg,NA,33,1515389,kid,5,NA,9,worldmap,
NA,kid_23,23,NA,person kneeling,7262.6,tangram,close,tangram-55.jpg,N1.jpg,NA,34,1523154,kid,5,NA,15,kneel,
NA,kid_23,23,NA,person walking,5437.5,tangram,close,B1.jpg,P1.jpg,NA,35,1529094,kid,5,NA,14,walk,
NA,kid_23,23,NA,jellybeans,5695.6,familiar,far,jellybeans.jpg,pretzels.jpg,NA,37,1545898,kid,5,NA,10,jellybeans,1
NA,kid_23,23,NA,big dog,8713.5,familiar,far,germanshepherd.jpg,cow.jpg,NA,38,1555116,kid,5,NA,7,bigdog,2
NA,kid_23,23,NA,nice shirt,6265.5,familiar,far,poloshirt.jpg,dress.jpg,NA,39,1561885,kid,5,NA,10,niceshirt,1
NA,kid_23,23,NA,blue car,9021.2,familiar,far,sedan.jpg,firetruck.jpg,NA,40,1571413,kid,5,NA,8,bluecar,2
NA,kid_23,23,NA,bear,6080.3,familiar,far,grizzlybear.jpg,lion.jpg,NA,41,1577999,kid,5,NA,4,bear,1
NA,kid_23,23,NA,table,4378,familiar,far,diningtable.jpg,wardrobe.jpg,NA,42,1582881,kid,5,NA,5,table,1
NA,kid_23,23,NA,gray bird,4239,familiar,far,sparrow.jpg,squirrel.jpg,NA,43,1587624,kid,5,NA,9,graybird,2
NA,kid_23,23,NA,orange fish,7469.4,familiar,far,goldfish.jpg,iguana.jpg,NA,44,1595599,kid,5,NA,11,orangefish,2
NA,kid_23,23,NA,person kicking its leg up,6437.9,tangram,far,tangram-48.jpg,D1.jpg,NA,46,1626439,kid,5,NA,25,kicklegup,
NA,kid_23,23,NA,person running,7435.5,tangram,far,tangram-67.jpg,G1.jpg,NA,47,1634381,kid,5,NA,14,run,
NA,kid_23,23,NA,person walking,6556.3,tangram,far,B1.jpg,tangram-4.jpg,NA,48,1641443,kid,5,NA,14,walk,
NA,kid_23,23,NA,person with its leg back,8348.6,tangram,far,tangram-90.jpg,tangram-120.jpg,NA,49,1650294,kid,5,NA,24,legback,
NA,kid_23,23,NA,world map,6824.4,tangram,far,A2.jpg,C1.jpg,NA,50,1657623,kid,5,NA,9,worldmap,
NA,kid_23,23,NA,person kneeling,8252.5,tangram,far,tangram-55.jpg,tangram-143.jpg,NA,51,1666379,kid,5,NA,15,kneel,
NA,kid_23,23,NA,person holding something,5481.3,tangram,far,H1.jpg,tangram-8.jpg,NA,52,1672366,kid,5,NA,24,hold,
NA,kid_23,23,NA,person sitting with one leg down and one up,9159.5,tangram,far,tangram-164.jpg,tangram-64.jpg,NA,53,1682028,kid,5,NA,43,sitwithonelegdownandoneup,
NA,kid_23,23,NA,dog,18527.8,familiar,check,husky.jpg,dalmatian.jpg,NA,55,1802686,kid,5,0,3,dog,
NA,kid_23,23,NA,red flower,10363,familiar,check,rose.jpg,daisy.jpg,NA,56,1813551,kid,5,0,10,redflower,
NA,kid_23,23,NA,polar bear,9147.5,familiar,check,polarbear.jpg,grizzlybear.jpg,NA,57,1823200,kid,5,0,10,polarbear,
NA,kid_23,23,NA,cup,11305.5,familiar,check,apple.jpg,pear.jpg,NA,58,1835007,kid,5,0,3,cup,
NA,kid_23,23,NA,table,10638.1,familiar,check,pug.jpg,rabbit.jpg,NA,59,1846146,kid,5,0,5,table,
NA,kid_23,23,NA,bear,10729.7,familiar,check,firetruck.jpg,ambulance.jpg,NA,60,1857377,kid,5,0,4,bear,
NA,kid_23,23,NA,shirt,15576.7,familiar,check,dressshirt.jpg,campshirt.jpg,NA,61,1873454,kid,5,0,5,shirt,
NA,kid_23,23,NA,bird,10491.1,familiar,check,parrot.jpg,pigeon.jpg,NA,62,1884449,kid,5,0,4,bird,
NA,kid_23,23,NA,m&ms,10055.4,familiar,check,mnms.jpg,gummybears.jpg,NA,63,1895006,kid,5,0,4,mnms,
NA,kid_24,24,NA,bird,5290.3,familiar,far,sparrow.jpg,squirrel.jpg,NA,19,1522462,kid,5,NA,4,bird,1
NA,kid_24,24,NA,wolf,8682,familiar,far,germanshepherd.jpg,cow.jpg,NA,20,1531650,kid,5,NA,4,wolf,1
NA,kid_24,24,NA,fish,4066.6,familiar,far,goldfish.jpg,iguana.jpg,NA,21,1536222,kid,5,NA,4,fish,1
NA,kid_24,24,NA,big table,5838.8,familiar,far,diningtable.jpg,wardrobe.jpg,NA,22,1542566,kid,5,NA,9,bigtable,2
NA,kid_24,24,NA,full of balls,7771.3,familiar,far,jellybeans.jpg,pretzels.jpg,NA,23,1550841,kid,5,NA,13,ball,1
NA,kid_24,24,NA,big bear,5546.2,familiar,far,grizzlybear.jpg,lion.jpg,NA,24,1556893,kid,5,NA,8,bigbear,2
NA,kid_24,24,NA,big dad shirt,7180.1,familiar,far,poloshirt.jpg,dress.jpg,NA,25,1564577,kid,5,NA,13,bigdadshirt,2
NA,kid_24,24,NA,car,3628.5,familiar,far,sedan.jpg,firetruck.jpg,NA,26,1568711,kid,5,NA,3,car,1
NA,kid_24,24,NA,paper made up of people,14219.3,tangram,far,A2.jpg,C1.jpg,NA,28,1598086,kid,5,NA,23,people,
NA,kid_24,24,NA,paper made up into a guy,10518.8,tangram,far,B1.jpg,tangram-4.jpg,NA,29,1609108,kid,5,NA,24,guy,
NA,kid_24,24,NA,paper made up into a dancing guy,9878.6,tangram,far,tangram-90.jpg,tangram-120.jpg,NA,30,1619492,kid,5,NA,32,guydance,
NA,kid_24,24,NA,running guy,7288,tangram,far,tangram-67.jpg,G1.jpg,NA,31,1627283,kid,5,NA,11,guyrun,
NA,kid_24,24,NA,another running guy,9587.7,tangram,far,tangram-55.jpg,tangram-143.jpg,NA,32,1637377,kid,5,NA,19,guyrun,
NA,kid_24,24,NA,guy eating food,9447.3,tangram,far,H1.jpg,tangram-8.jpg,NA,33,1647331,kid,5,NA,15,guyeatfood,
NA,kid_24,24,NA,guy kicking,6907.1,tangram,far,tangram-48.jpg,D1.jpg,NA,34,1654740,kid,5,NA,11,guykick,
NA,kid_24,24,NA,another guy kicking,8636.2,tangram,far,tangram-164.jpg,tangram-64.jpg,NA,35,1663883,kid,5,NA,19,guykick,
NA,kid_24,24,NA,orange fish,7359.6,familiar,close,goldfish.jpg,swordfish.jpg,NA,37,1683654,kid,5,NA,11,orangefish,1
NA,kid_24,24,NA,bird,5133.4,familiar,close,sparrow.jpg,eagle.jpg,NA,38,1689290,kid,5,NA,4,bird,0
NA,kid_24,24,NA,wolf,4893.8,familiar,close,germanshepherd.jpg,pug.jpg,NA,39,1694686,kid,5,NA,4,wolf,1
NA,kid_24,24,NA,shirt,4891.7,familiar,close,poloshirt.jpg,hawaiishirt.jpg,NA,40,1700083,kid,5,NA,5,shirt,0
NA,kid_24,24,NA,bear,4497.8,familiar,close,grizzlybear.jpg,polarbear.jpg,NA,41,1705086,kid,5,NA,4,bear,0
NA,kid_24,24,NA,full of balls,5581.2,familiar,close,jellybeans.jpg,gummybears.jpg,NA,42,1711172,kid,5,NA,13,fullofball,1
NA,kid_24,24,NA,car,5025.1,familiar,close,sedan.jpg,sportscar.jpg,NA,43,1716699,kid,5,NA,3,car,0
NA,kid_24,24,NA,table,4203,familiar,close,diningtable.jpg,picnictable.jpg,NA,44,1721406,kid,5,NA,5,table,
NA,kid_24,24,NA,guy eating,7727.5,tangram,close,H1.jpg,I1.jpg,NA,46,1741757,kid,5,NA,10,eat,
NA,kid_24,24,NA,guy kicking,5311.7,tangram,close,tangram-164.jpg,tangram-183.jpg,NA,47,1747571,kid,5,NA,11,kick,
NA,kid_24,24,NA,guy running,5113.8,tangram,close,tangram-55.jpg,N1.jpg,NA,48,1753192,kid,5,NA,11,run,
NA,kid_24,24,NA,guy running,5401.4,tangram,close,tangram-67.jpg,tangram-32.jpg,NA,49,1759099,kid,5,NA,11,run,
NA,kid_24,24,NA,guy dancing,5048.7,tangram,close,tangram-90.jpg,tangram-81.jpg,NA,50,1764651,kid,5,NA,11,dance,
NA,kid_24,24,NA,guy walking,5451.8,tangram,close,B1.jpg,P1.jpg,NA,51,1770609,kid,5,NA,11,walk,
NA,kid_24,24,NA,guy going behind with his hand,15213.4,tangram,close,A2.jpg,tangram-99.jpg,NA,52,1786327,kid,5,NA,30,gobehindwithhishand,
NA,kid_24,24,NA,guy kicking,6141,tangram,close,tangram-48.jpg,tangram-187.jpg,NA,53,1792975,kid,5,NA,11,kick,
NA,kid_24,24,NA,bear,8457.3,familiar,check,firetruck.jpg,ambulance.jpg,NA,55,1844482,kid,5,1,4,bear,
NA,kid_24,24,NA,cup,7471.5,familiar,check,apple.jpg,pear.jpg,NA,56,1852455,kid,5,1,3,cup,
NA,kid_24,24,NA,table,7578.7,familiar,check,pug.jpg,rabbit.jpg,NA,57,1860540,kid,5,1,5,table,
NA,kid_24,24,NA,bird,7391.4,familiar,check,parrot.jpg,pigeon.jpg,NA,58,1868436,kid,5,0,4,bird,
NA,kid_24,24,NA,m&ms,7572,familiar,check,mnms.jpg,gummybears.jpg,NA,59,1876513,kid,5,0,4,mnms,
NA,kid_24,24,NA,shirt,8929.1,familiar,check,dressshirt.jpg,campshirt.jpg,NA,60,1885943,kid,5,0,5,shirt,
NA,kid_24,24,NA,polar bear,7287.8,familiar,check,polarbear.jpg,grizzlybear.jpg,NA,61,1893736,kid,5,0,10,polarbear,
NA,kid_24,24,NA,dog,7073.8,familiar,check,husky.jpg,dalmatian.jpg,NA,62,1901313,kid,5,0,3,dog,
NA,kid_24,24,NA,red flower,7398.3,familiar,check,rose.jpg,daisy.jpg,NA,63,1909217,kid,5,0,10,redflower,
NA,kid_25,25,NA,jellybeans,6076.1,familiar,close,jellybeans.jpg,gummybears.jpg,NA,19,2719548,kid,7,NA,10,jellybeans,1
NA,kid_25,25,NA,table,4173.3,familiar,close,diningtable.jpg,picnictable.jpg,NA,20,2724228,kid,7,NA,5,table,0
NA,kid_25,25,NA,blue shirt,4315.1,familiar,close,poloshirt.jpg,hawaiishirt.jpg,NA,21,2729049,kid,7,NA,10,blueshirt,1
NA,kid_25,25,NA,grey bird,8799.4,familiar,close,sparrow.jpg,eagle.jpg,NA,22,2738352,kid,7,NA,9,greybird,1
NA,kid_25,25,NA,blue car,5059.5,familiar,close,sedan.jpg,sportscar.jpg,NA,23,2743918,kid,7,NA,8,bluecar,1
NA,kid_25,25,NA,dog,4758.6,familiar,close,germanshepherd.jpg,pug.jpg,NA,24,2749180,kid,7,NA,3,dog,0
NA,kid_25,25,NA,fish,4359,familiar,close,goldfish.jpg,swordfish.jpg,NA,25,2754042,kid,7,NA,4,fish,0
NA,kid_25,25,NA,brown bear,4595.7,familiar,close,grizzlybear.jpg,polarbear.jpg,NA,26,2759142,kid,7,NA,10,brownbear,1
NA,kid_25,25,NA,person running,6803.6,tangram,close,tangram-55.jpg,N1.jpg,NA,28,2779733,kid,7,NA,14,run,
NA,kid_25,25,NA,person dancing,11758.2,tangram,close,A2.jpg,tangram-99.jpg,NA,29,2791996,kid,7,NA,14,dance,
NA,kid_25,25,NA,person giving something,8845.1,tangram,close,H1.jpg,I1.jpg,NA,30,2801344,kid,7,NA,23,give,
NA,kid_25,25,NA,person who is sad,8479.2,tangram,close,B1.jpg,P1.jpg,NA,31,2810326,kid,7,NA,17,sad,
NA,kid_25,25,NA,person running really fast,8079.5,tangram,close,tangram-67.jpg,tangram-32.jpg,NA,32,2818911,kid,7,NA,26,runreallyfast,
NA,kid_25,25,NA,person kicking something,6339.7,tangram,close,tangram-48.jpg,tangram-187.jpg,NA,33,2825754,kid,7,NA,24,kick,
NA,kid_25,25,NA,person standing on one leg,7849.1,tangram,close,tangram-164.jpg,tangram-183.jpg,NA,34,2834108,kid,7,NA,26,standononeleg,
NA,kid_25,25,NA,person standing on one leg,8436.5,tangram,close,tangram-90.jpg,tangram-81.jpg,NA,35,2843050,kid,7,NA,26,standononeleg,
NA,kid_25,25,NA,brown bear,4117.5,familiar,far,grizzlybear.jpg,lion.jpg,NA,37,2860910,kid,7,NA,10,brownbear,2
NA,kid_25,25,NA,jellybeans,3513.7,familiar,far,jellybeans.jpg,pretzels.jpg,NA,38,2864931,kid,7,NA,10,jellybeans,1
NA,kid_25,25,NA,blue shirt,7037.4,familiar,far,poloshirt.jpg,dress.jpg,NA,39,2872475,kid,7,NA,10,blueshirt,2
NA,kid_25,25,NA,grey bird,10769.9,familiar,far,sparrow.jpg,squirrel.jpg,NA,40,2883747,kid,7,NA,9,greybird,2
NA,kid_25,25,NA,dog,4651.5,familiar,far,germanshepherd.jpg,cow.jpg,NA,41,2888905,kid,7,NA,3,dog,1
NA,kid_25,25,NA,goldfish,4948.5,familiar,far,goldfish.jpg,iguana.jpg,NA,42,2894360,kid,7,NA,8,goldfish,1
NA,kid_25,25,NA,brown long table,7806.4,familiar,far,diningtable.jpg,wardrobe.jpg,NA,43,2902673,kid,7,NA,16,brownlongtable,2
NA,kid_25,25,NA,blue car which is shiny,8899.1,familiar,far,sedan.jpg,firetruck.jpg,NA,44,2912082,kid,7,NA,23,bluecarshiny,2
NA,kid_25,25,NA,person sad,7064.4,tangram,far,B1.jpg,tangram-4.jpg,NA,46,2932795,kid,7,NA,10,sad,
NA,kid_25,25,NA,person who is giving soup,11069,tangram,far,H1.jpg,tangram-8.jpg,NA,47,2944366,kid,7,NA,25,givesoup,
NA,kid_25,25,NA,person standing on one leg,8207.5,tangram,far,tangram-90.jpg,tangram-120.jpg,NA,48,2953078,kid,7,NA,26,standononeleg,
NA,kid_25,25,NA,person running,4597.4,tangram,far,tangram-55.jpg,tangram-143.jpg,NA,49,2958178,kid,7,NA,14,run,
NA,kid_25,25,NA,person running really fast,7772.7,tangram,far,tangram-67.jpg,G1.jpg,NA,50,2966455,kid,7,NA,26,runreallyfast,
NA,kid_25,25,NA,person standing on one leg,8491.8,tangram,far,tangram-48.jpg,D1.jpg,NA,51,2975451,kid,7,NA,26,standononeleg,
NA,kid_25,25,NA,person who is putting their hand up,11374.5,tangram,far,A2.jpg,C1.jpg,NA,52,2987329,kid,7,NA,35,puttingtheirhandup,
NA,kid_25,25,NA,person who is about to trip,10309.9,tangram,far,tangram-164.jpg,tangram-64.jpg,NA,53,2998145,kid,7,NA,27,abouttotrip,
NA,kid_25,25,NA,table,7878.3,familiar,check,pug.jpg,rabbit.jpg,NA,55,3049083,kid,7,1,5,table,
NA,kid_25,25,NA,dog,7894.3,familiar,check,husky.jpg,dalmatian.jpg,NA,56,3057481,kid,7,0,3,dog,
NA,kid_25,25,NA,shirt,6471.2,familiar,check,dressshirt.jpg,campshirt.jpg,NA,57,3064456,kid,7,0,5,shirt,
NA,kid_25,25,NA,cup,5749.2,familiar,check,apple.jpg,pear.jpg,NA,58,3070709,kid,7,1,3,cup,
NA,kid_25,25,NA,bird,6646,familiar,check,parrot.jpg,pigeon.jpg,NA,59,3077859,kid,7,0,4,bird,
NA,kid_25,25,NA,bear,6962.6,familiar,check,firetruck.jpg,ambulance.jpg,NA,60,3085323,kid,7,1,4,bear,
NA,kid_25,25,NA,polar bear,6465.7,familiar,check,polarbear.jpg,grizzlybear.jpg,NA,61,3092290,kid,7,0,10,polarbear,
NA,kid_25,25,NA,m&ms,6215.6,familiar,check,mnms.jpg,gummybears.jpg,NA,62,3099008,kid,7,0,4,mnms,
NA,kid_25,25,NA,red flower,7310.2,familiar,check,rose.jpg,daisy.jpg,NA,63,3106820,kid,7,0,10,redflower,
NA,kid_26,26,NA,blue car,8286.1,familiar,close,sedan.jpg,sportscar.jpg,NA,19,243741,kid,5,NA,8,bluecar,1
NA,kid_26,26,NA,blue shirt,5751.1,familiar,close,poloshirt.jpg,hawaiishirt.jpg,NA,20,249998,kid,5,NA,10,blueshirt,1
NA,kid_26,26,NA,bird,5904,familiar,close,sparrow.jpg,eagle.jpg,NA,21,256405,kid,5,NA,4,bird,0
NA,kid_26,26,NA,table,5836.3,familiar,close,diningtable.jpg,picnictable.jpg,NA,22,262748,kid,5,NA,5,table,0
NA,kid_26,26,NA,bear,4530.3,familiar,close,grizzlybear.jpg,polarbear.jpg,NA,23,267781,kid,5,NA,4,bear,0
NA,kid_26,26,NA,dog,5654.4,familiar,close,germanshepherd.jpg,pug.jpg,NA,24,273937,kid,5,NA,3,dog,0
NA,kid_26,26,NA,candies,5342,familiar,close,jellybeans.jpg,gummybears.jpg,NA,25,279781,kid,5,NA,7,candy,0
NA,kid_26,26,NA,goldfish,3481,familiar,close,goldfish.jpg,swordfish.jpg,NA,26,283768,kid,5,NA,8,goldfish,1
NA,kid_26,26,NA,weird person,15184.9,tangram,far,tangram-90.jpg,tangram-120.jpg,NA,28,314934,kid,5,NA,12,weird,
NA,kid_26,26,NA,walking person,4622.5,tangram,far,B1.jpg,tangram-4.jpg,NA,29,320061,kid,5,NA,14,walk,
NA,kid_26,26,NA,sitting person,5976.1,tangram,far,H1.jpg,tangram-8.jpg,NA,30,326542,kid,5,NA,14,sit,
NA,kid_26,26,NA,lying down person,8569.8,tangram,far,tangram-55.jpg,tangram-143.jpg,NA,31,335615,kid,5,NA,17,liedown,
NA,kid_26,26,NA,running person,6498.1,tangram,far,A2.jpg,C1.jpg,NA,32,342619,kid,5,NA,14,run,
NA,kid_26,26,NA,kicking person,5519.7,tangram,far,tangram-164.jpg,tangram-64.jpg,NA,33,348644,kid,5,NA,14,kick,
NA,kid_26,26,NA,running,4668.2,tangram,far,tangram-67.jpg,G1.jpg,NA,34,353817,kid,5,NA,7,run,
NA,kid_26,26,NA,kicking the other way,8566.4,tangram,far,tangram-48.jpg,D1.jpg,NA,35,362888,kid,5,NA,21,kicktheotherway,
NA,kid_26,26,NA,bear,3261.3,familiar,far,grizzlybear.jpg,lion.jpg,NA,37,379462,kid,5,NA,4,bear,1
NA,kid_26,26,NA,blue car,4012.1,familiar,far,sedan.jpg,firetruck.jpg,NA,38,383979,kid,5,NA,8,bluecar,2
NA,kid_26,26,NA,bird,3309.6,familiar,far,sparrow.jpg,squirrel.jpg,NA,39,387791,kid,5,NA,4,bird,1
NA,kid_26,26,NA,goldfish,4570.7,familiar,far,goldfish.jpg,iguana.jpg,NA,40,392868,kid,5,NA,8,goldfish,1
NA,kid_26,26,NA,shirt,3388.6,familiar,far,poloshirt.jpg,dress.jpg,NA,41,396762,kid,5,NA,5,shirt,1
NA,kid_26,26,NA,table,3500.5,familiar,far,diningtable.jpg,wardrobe.jpg,NA,42,400765,kid,5,NA,5,table,1
NA,kid_26,26,NA,dog,3220.1,familiar,far,germanshepherd.jpg,cow.jpg,NA,43,404487,kid,5,NA,3,dog,1
NA,kid_26,26,NA,candy,3300.8,familiar,far,jellybeans.jpg,pretzels.jpg,NA,44,408292,kid,5,NA,5,candy,1
NA,kid_26,26,NA,person,9010.7,tangram,close,tangram-55.jpg,N1.jpg,NA,46,452735,kid,5,NA,6,person,
NA,kid_26,26,NA,running person,3905.9,tangram,close,tangram-67.jpg,tangram-32.jpg,NA,47,457145,kid,5,NA,14,run,
NA,kid_26,26,NA,walking person,5722.6,tangram,close,tangram-90.jpg,tangram-81.jpg,NA,48,463371,kid,5,NA,14,walk,
NA,kid_26,26,NA,kicking person,4140.1,tangram,close,tangram-164.jpg,tangram-183.jpg,NA,49,468019,kid,5,NA,14,kick,
NA,kid_26,26,NA,kicking the other way,7060.2,tangram,close,tangram-48.jpg,tangram-187.jpg,NA,50,475584,kid,5,NA,21,kick,
NA,kid_26,26,NA,walking,6831,tangram,close,A2.jpg,tangram-99.jpg,NA,51,482920,kid,5,NA,7,walk,
NA,kid_26,26,NA,sitting and holding out its hands,11019,tangram,close,H1.jpg,I1.jpg,NA,52,494444,kid,5,NA,33,sitholdouthand,
NA,kid_26,26,NA,walking tired-ly,9085.4,tangram,close,B1.jpg,P1.jpg,NA,53,504035,kid,5,NA,16,walktired,
NA,kid_26,26,NA,bear,7491,familiar,check,firetruck.jpg,ambulance.jpg,NA,55,551949,kid,5,1,4,bear,
NA,kid_26,26,NA,m&ms,15113.2,familiar,check,mnms.jpg,gummybears.jpg,NA,56,567564,kid,5,0,4,mnms,
NA,kid_26,26,NA,red flower,9968.8,familiar,check,rose.jpg,daisy.jpg,NA,57,578038,kid,5,0,10,redflower,
NA,kid_26,26,NA,bird,6374.9,familiar,check,parrot.jpg,pigeon.jpg,NA,58,584915,kid,5,0,4,bird,
NA,kid_26,26,NA,cup,9912.9,familiar,check,apple.jpg,pear.jpg,NA,59,595332,kid,5,1,3,cup,
NA,kid_26,26,NA,dog,16547.2,familiar,check,husky.jpg,dalmatian.jpg,NA,60,612380,kid,5,0,3,dog,
NA,kid_26,26,NA,polar bear,6370,familiar,check,polarbear.jpg,grizzlybear.jpg,NA,61,619255,kid,5,0,10,polarbear,
NA,kid_26,26,NA,shirt,8139.7,familiar,check,dressshirt.jpg,campshirt.jpg,NA,62,627896,kid,5,1,5,shirt,
NA,kid_26,26,NA,table,9214.1,familiar,check,pug.jpg,rabbit.jpg,NA,63,637612,kid,5,1,5,table,
NA,kid_27,27,NA,brown bear,5497.7,familiar,close,grizzlybear.jpg,polarbear.jpg,NA,19,925154,kid,8,NA,10,brownbear,1
NA,kid_27,27,NA,multi colored jellybeans,9169.7,familiar,close,jellybeans.jpg,gummybears.jpg,NA,20,934829,kid,8,NA,24,multicolorjellybeans,1
NA,kid_27,27,NA,blue shirt with no pattern,6972.4,familiar,close,poloshirt.jpg,hawaiishirt.jpg,NA,21,942304,kid,8,NA,26,blueshirtnopattern,1
NA,kid_27,27,NA,brownish grayish bird,7491.1,familiar,close,sparrow.jpg,eagle.jpg,NA,22,950298,kid,8,NA,21,brownishgrayishbird,1
NA,kid_27,27,NA,no seats table,8610.4,familiar,close,diningtable.jpg,picnictable.jpg,NA,23,959413,kid,8,NA,14,noseattable,1
NA,kid_27,27,NA,orange fish,4763,familiar,close,goldfish.jpg,swordfish.jpg,NA,24,964681,kid,8,NA,11,orangefish,1
NA,kid_27,27,NA,german shepard,9434.2,familiar,close,germanshepherd.jpg,pug.jpg,NA,25,974619,kid,8,NA,14,germanshepard,1
NA,kid_27,27,NA,blue car,4320.9,familiar,close,sedan.jpg,sportscar.jpg,NA,26,979444,kid,8,NA,8,bluecar,1
NA,kid_27,27,NA,person running,6756.7,tangram,far,tangram-67.jpg,G1.jpg,NA,28,999595,kid,8,NA,14,run,
NA,kid_27,27,NA,person hopping on one leg,7442.9,tangram,far,tangram-48.jpg,D1.jpg,NA,29,1007544,kid,8,NA,25,hopononeleg,
NA,kid_27,27,NA,person kneeling,12211,tangram,far,H1.jpg,tangram-8.jpg,NA,30,1020259,kid,8,NA,15,kneel,
NA,kid_27,27,NA,person sitting,5928.5,tangram,far,tangram-164.jpg,tangram-64.jpg,NA,31,1026692,kid,8,NA,14,sit,
NA,kid_27,27,NA,person walking,4512,tangram,far,B1.jpg,tangram-4.jpg,NA,32,1031708,kid,8,NA,14,walk,
NA,kid_27,27,NA,a girl,10929.4,tangram,far,A2.jpg,C1.jpg,NA,33,1043141,kid,8,NA,6,girl,
NA,kid_27,27,NA,person running,12049.9,tangram,far,tangram-55.jpg,tangram-143.jpg,NA,34,1055693,kid,8,NA,14,run,
NA,kid_27,27,NA,person on one leg,16022.4,tangram,far,tangram-90.jpg,tangram-120.jpg,NA,35,1072221,kid,8,NA,17,ononeleg,
NA,kid_27,27,NA,bird,6871,familiar,far,sparrow.jpg,squirrel.jpg,NA,37,1092349,kid,8,NA,4,bird,1
NA,kid_27,27,NA,brown bear,5501.9,familiar,far,grizzlybear.jpg,lion.jpg,NA,38,1098353,kid,8,NA,10,brownbear,2
NA,kid_27,27,NA,table,4392.1,familiar,far,diningtable.jpg,wardrobe.jpg,NA,39,1103249,kid,8,NA,5,table,1
NA,kid_27,27,NA,blue shirt,4530.4,familiar,far,poloshirt.jpg,dress.jpg,NA,40,1108282,kid,8,NA,10,blueshirt,2
NA,kid_27,27,NA,dog,4036.5,familiar,far,germanshepherd.jpg,cow.jpg,NA,41,1112822,kid,8,NA,3,dog,1
NA,kid_27,27,NA,candy,4785.5,familiar,far,jellybeans.jpg,pretzels.jpg,NA,42,1118112,kid,8,NA,5,candy,1
NA,kid_27,27,NA,orange fish,7677.8,familiar,far,goldfish.jpg,iguana.jpg,NA,43,1126292,kid,8,NA,11,orangefish,2
NA,kid_27,27,NA,blue regular car,6500.1,familiar,far,sedan.jpg,firetruck.jpg,NA,44,1133297,kid,8,NA,16,blueregularcar,2
NA,kid_27,27,NA,person running,6460.4,tangram,close,tangram-55.jpg,N1.jpg,NA,46,1153202,kid,8,NA,14,run,
NA,kid_27,27,NA,person with no arms,30133.1,tangram,close,tangram-48.jpg,tangram-187.jpg,NA,47,1183840,kid,8,NA,19,noarm,
NA,kid_27,27,NA,person crossing its legs,7472.4,tangram,close,tangram-164.jpg,tangram-183.jpg,NA,48,1191816,kid,8,NA,24,crossleg,
NA,kid_27,27,NA,person kneeling,5432.1,tangram,close,H1.jpg,I1.jpg,NA,49,1197753,kid,8,NA,15,kneel,
NA,kid_27,27,NA,person jumping splits,14199,tangram,close,tangram-67.jpg,tangram-32.jpg,NA,50,1212458,kid,8,NA,21,jumpsplit,
NA,kid_27,27,NA,a girl,4834.8,tangram,close,A2.jpg,tangram-99.jpg,NA,51,1217798,kid,8,NA,6,girl,
NA,kid_27,27,NA,person walking,8940.7,tangram,close,B1.jpg,P1.jpg,NA,52,1227246,kid,8,NA,14,walk,
NA,kid_27,27,NA,person on one leg,7217.4,tangram,close,tangram-90.jpg,tangram-81.jpg,NA,53,1234970,kid,8,NA,17,ononeleg,
NA,kid_27,27,NA,table,7632.7,familiar,check,pug.jpg,rabbit.jpg,NA,55,1284202,kid,8,1,5,table,
NA,kid_27,27,NA,dog,7918.3,familiar,check,husky.jpg,dalmatian.jpg,NA,56,1292622,kid,8,1,3,dog,
NA,kid_27,27,NA,cup,7825.3,familiar,check,apple.jpg,pear.jpg,NA,57,1300951,kid,8,1,3,cup,
NA,kid_27,27,NA,bird,11784.1,familiar,check,parrot.jpg,pigeon.jpg,NA,58,1313240,kid,8,1,4,bird,
NA,kid_27,27,NA,bear,7800.2,familiar,check,firetruck.jpg,ambulance.jpg,NA,59,1321543,kid,8,1,4,bear,
NA,kid_27,27,NA,red flower,7358.5,familiar,check,rose.jpg,daisy.jpg,NA,60,1329404,kid,8,0,10,redflower,
NA,kid_27,27,NA,polar bear,7276.4,familiar,check,polarbear.jpg,grizzlybear.jpg,NA,61,1337186,kid,8,0,10,polarbear,
NA,kid_27,27,NA,m&ms,7568.8,familiar,check,mnms.jpg,gummybears.jpg,NA,62,1345260,kid,8,0,4,mnms,
NA,kid_27,27,NA,shirt,10481.7,familiar,check,dressshirt.jpg,campshirt.jpg,NA,63,1356246,kid,8,1,5,shirt,
NA,kid_28,28,NA,rainbow,8643.3,familiar,far,jellybeans.jpg,pretzels.jpg,NA,19,276821,kid,8,NA,7,rainbow,1
NA,kid_28,28,NA,starts with a b,9949.1,familiar,far,grizzlybear.jpg,lion.jpg,NA,20,287273,kid,8,NA,15,startwithab,1
NA,kid_28,28,NA,it barks,7327.1,familiar,far,germanshepherd.jpg,cow.jpg,NA,21,295105,kid,8,NA,8,itbark,1
NA,kid_28,28,NA,it starts with a t,8859.3,familiar,far,diningtable.jpg,wardrobe.jpg,NA,22,304469,kid,8,NA,18,startwhat,1
NA,kid_28,28,NA,it swims,6573.1,familiar,far,goldfish.jpg,iguana.jpg,NA,23,311548,kid,8,NA,8,swim,1
NA,kid_28,28,NA,it flies,6984.7,familiar,far,sparrow.jpg,squirrel.jpg,NA,24,319038,kid,8,NA,8,fly,1
NA,kid_28,28,NA,its light blue,12418.3,familiar,far,poloshirt.jpg,dress.jpg,NA,25,331963,kid,8,NA,14,lightblue,1
NA,kid_28,28,NA,its not for emergencies,10503.3,familiar,far,sedan.jpg,firetruck.jpg,NA,26,342971,kid,8,NA,23,notforemergency,1
NA,kid_28,28,NA,hand is not sticking out,17658.4,tangram,close,B1.jpg,P1.jpg,NA,28,372772,kid,8,NA,24,handbenotstickout,
NA,kid_28,28,NA,its mixed up,9234,tangram,close,A2.jpg,tangram-99.jpg,NA,29,382511,kid,8,NA,12,mixup,
NA,kid_28,28,NA,its running,6566.3,tangram,close,tangram-90.jpg,tangram-81.jpg,NA,30,389583,kid,8,NA,11,run,
NA,kid_28,28,NA,eating something,10098.5,tangram,close,H1.jpg,I1.jpg,NA,31,400186,kid,8,NA,16,eat,
NA,kid_28,28,NA,his head is not in his body,16578.3,tangram,close,tangram-48.jpg,tangram-187.jpg,NA,32,417268,kid,8,NA,27,hisheadbenotinhisbody,
NA,kid_28,28,NA,running not that fast,7015,tangram,close,tangram-55.jpg,N1.jpg,NA,33,424788,kid,8,NA,21,runnotthatfast,
NA,kid_28,28,NA,standing on one leg,9993,tangram,close,tangram-164.jpg,tangram-183.jpg,NA,34,435287,kid,8,NA,19,standononeleg,
NA,kid_28,28,NA,doing the splits,6881.7,tangram,close,tangram-67.jpg,tangram-32.jpg,NA,35,442672,kid,8,NA,16,split,
NA,kid_28,28,NA,its starts with a j,12341.7,familiar,close,jellybeans.jpg,gummybears.jpg,NA,37,465122,kid,8,NA,19,startwithj,1
NA,kid_28,28,NA,it lives in the forest,8043.5,familiar,close,grizzlybear.jpg,polarbear.jpg,NA,38,473670,kid,8,NA,22,lifeintheforest,1
NA,kid_28,28,NA,not yellow beak,23805.4,familiar,close,sparrow.jpg,eagle.jpg,NA,39,497979,kid,8,NA,15,noyellowbeak,1
NA,kid_28,28,NA,its blue,6603.9,familiar,close,sedan.jpg,sportscar.jpg,NA,40,505086,kid,8,NA,8,blue,1
NA,kid_28,28,NA,it doesn't have a sharp nose,9489.7,familiar,close,goldfish.jpg,swordfish.jpg,NA,41,515079,kid,8,NA,28,nosharpnose,1
NA,kid_28,28,NA,its brown,7103.8,familiar,close,diningtable.jpg,picnictable.jpg,NA,42,522686,kid,8,NA,9,brown,1
NA,kid_28,28,NA,almost lying down,12355.6,familiar,close,germanshepherd.jpg,pug.jpg,NA,43,535545,kid,8,NA,17,almostliedown,1
NA,kid_28,28,NA,its bigger than the other,9104.5,familiar,close,poloshirt.jpg,hawaiishirt.jpg,NA,44,545155,kid,8,NA,25,big,1
NA,kid_28,28,NA,hes not doing a handstand,12600.8,tangram,far,B1.jpg,tangram-4.jpg,NA,46,572107,kid,8,NA,25,nothandstand,
NA,kid_28,28,NA,running,5233.5,tangram,far,tangram-90.jpg,tangram-120.jpg,NA,47,577845,kid,8,NA,7,run,
NA,kid_28,28,NA,not lying down,6727.8,tangram,far,tangram-48.jpg,D1.jpg,NA,48,585076,kid,8,NA,14,notliedown,
NA,kid_28,28,NA,running really fast,4826,tangram,far,tangram-55.jpg,tangram-143.jpg,NA,49,590405,kid,8,NA,19,runreallyfast,
NA,kid_28,28,NA,not in a rainbow shape,16247.1,tangram,far,A2.jpg,C1.jpg,NA,50,607156,kid,8,NA,22,notrainbowshape,
NA,kid_28,28,NA,running,4639.1,tangram,far,tangram-67.jpg,G1.jpg,NA,51,612300,kid,8,NA,7,run,
NA,kid_28,28,NA,standing on one leg,6303.7,tangram,far,tangram-164.jpg,tangram-64.jpg,NA,52,619111,kid,8,NA,19,standononeleg,
NA,kid_28,28,NA,hes eating,5967.9,tangram,far,H1.jpg,tangram-8.jpg,NA,53,625585,kid,8,NA,10,eat,
NA,kid_28,28,NA,shirt,8952.3,familiar,check,dressshirt.jpg,campshirt.jpg,NA,55,679068,kid,8,1,5,shirt,
NA,kid_28,28,NA,bird,19672.3,familiar,check,parrot.jpg,pigeon.jpg,NA,56,699243,kid,8,0,4,bird,
NA,kid_28,28,NA,polar bear,6059.5,familiar,check,polarbear.jpg,grizzlybear.jpg,NA,57,705806,kid,8,0,10,polarbear,
NA,kid_28,28,NA,m&ms,6729.7,familiar,check,mnms.jpg,gummybears.jpg,NA,58,713037,kid,8,0,4,mnms,
NA,kid_28,28,NA,dog,7161.3,familiar,check,husky.jpg,dalmatian.jpg,NA,59,720710,kid,8,0,3,dog,
NA,kid_28,28,NA,bear,6938.1,familiar,check,firetruck.jpg,ambulance.jpg,NA,60,728158,kid,8,1,4,bear,
NA,kid_28,28,NA,cup,8900.1,familiar,check,apple.jpg,pear.jpg,NA,61,737560,kid,8,1,3,cup,
NA,kid_28,28,NA,table,9751.7,familiar,check,pug.jpg,rabbit.jpg,NA,62,747816,kid,8,0,5,table,
NA,kid_28,28,NA,red flower,7151.6,familiar,check,rose.jpg,daisy.jpg,NA,63,755469,kid,8,0,10,redflower,
NA,kid_29,29,NA,blue car,9071.1,familiar,far,sedan.jpg,firetruck.jpg,NA,19,416628,kid,5,NA,8,bluecar,2
NA,kid_29,29,NA,table,4552.3,familiar,far,diningtable.jpg,wardrobe.jpg,NA,20,421688,kid,5,NA,5,table,1
NA,kid_29,29,NA,bird,4021.3,familiar,far,sparrow.jpg,squirrel.jpg,NA,21,426213,kid,5,NA,4,bird,1
NA,kid_29,29,NA,fish,7514.7,familiar,far,goldfish.jpg,iguana.jpg,NA,22,434234,kid,5,NA,4,fish,1
NA,kid_29,29,NA,wolf,7009.6,familiar,far,germanshepherd.jpg,cow.jpg,NA,23,441750,kid,5,NA,4,wolf,1
NA,kid_29,29,NA,candy,6298,familiar,far,jellybeans.jpg,pretzels.jpg,NA,24,448554,kid,5,NA,5,candy,1
NA,kid_29,29,NA,bear,3224.7,familiar,far,grizzlybear.jpg,lion.jpg,NA,25,452282,kid,5,NA,4,bear,1
NA,kid_29,29,NA,shirt,5278,familiar,far,poloshirt.jpg,dress.jpg,NA,26,458065,kid,5,NA,5,shirt,1
NA,kid_29,29,NA,black things,90154.4,tangram,close,B1.jpg,P1.jpg,NA,28,560362,kid,5,NA,12,black,
NA,kid_29,29,NA,person,14447.6,tangram,close,tangram-164.jpg,tangram-183.jpg,NA,29,575317,kid,5,NA,6,person,
NA,kid_29,29,NA,stickers,41480.9,tangram,close,tangram-90.jpg,tangram-81.jpg,NA,30,617303,kid,5,NA,8,sticker,
NA,kid_29,29,NA,dont know,35716.4,tangram,close,H1.jpg,I1.jpg,NA,31,653524,kid,5,NA,9,doknow,
NA,kid_29,29,NA,dont kow,13730.9,tangram,close,tangram-55.jpg,N1.jpg,NA,32,667762,kid,5,NA,8,dokow,
NA,kid_29,29,NA,not sure,72039.9,tangram,close,tangram-48.jpg,tangram-187.jpg,NA,33,740307,kid,5,NA,8,notsure,
NA,kid_29,29,NA,not sure,13995.4,tangram,close,A2.jpg,tangram-99.jpg,NA,34,754806,kid,5,NA,8,notsure,
NA,kid_29,29,NA,no guess,9868.7,tangram,close,tangram-67.jpg,tangram-32.jpg,NA,35,765179,kid,5,NA,8,noguess,
NA,kid_29,29,NA,fish,6573.1,familiar,close,goldfish.jpg,swordfish.jpg,NA,37,785499,kid,5,NA,4,fish,0
NA,kid_29,29,NA,blue car,5741.1,familiar,close,sedan.jpg,sportscar.jpg,NA,38,791744,kid,5,NA,8,bluecar,1
NA,kid_29,29,NA,blue shirt,5046.3,familiar,close,poloshirt.jpg,hawaiishirt.jpg,NA,39,797294,kid,5,NA,10,blueshirt,1
NA,kid_29,29,NA,bird,5503,familiar,close,sparrow.jpg,eagle.jpg,NA,40,803303,kid,5,NA,4,bird,0
NA,kid_29,29,NA,table,9597.2,familiar,close,diningtable.jpg,picnictable.jpg,NA,41,813405,kid,5,NA,5,table,0
NA,kid_29,29,NA,bear,3886,familiar,close,grizzlybear.jpg,polarbear.jpg,NA,42,817795,kid,5,NA,4,bear,0
NA,kid_29,29,NA,candy,5723.2,familiar,close,jellybeans.jpg,gummybears.jpg,NA,43,824025,kid,5,NA,5,candy,0
NA,kid_29,29,NA,wolf,4245.8,familiar,close,germanshepherd.jpg,pug.jpg,NA,44,828775,kid,5,NA,4,wolf,1
NA,kid_29,29,NA,not sure,15756.1,tangram,far,tangram-164.jpg,tangram-64.jpg,NA,46,856763,kid,5,NA,8,notsure,
NA,kid_29,29,NA,not sure,11983,tangram,far,A2.jpg,C1.jpg,NA,47,869250,kid,5,NA,8,notsure,
NA,kid_29,29,NA,running,10084.4,tangram,far,tangram-55.jpg,tangram-143.jpg,NA,48,879841,kid,5,NA,7,run,
NA,kid_29,29,NA,not sure,15275.2,tangram,far,tangram-67.jpg,G1.jpg,NA,49,895622,kid,5,NA,8,notsure,
NA,kid_29,29,NA,not sure,11640.2,tangram,far,tangram-90.jpg,tangram-120.jpg,NA,50,907767,kid,5,NA,8,notsure,
NA,kid_29,29,NA,pointing,18254.4,tangram,far,H1.jpg,tangram-8.jpg,NA,51,926524,kid,5,NA,8,point,
NA,kid_29,29,NA,kicking,7831.3,tangram,far,tangram-48.jpg,D1.jpg,NA,52,934858,kid,5,NA,7,kick,
NA,kid_29,29,NA,walking,5374.2,tangram,far,B1.jpg,tangram-4.jpg,NA,53,940736,kid,5,NA,7,walk,
NA,kid_29,29,NA,m&ms,8167.5,familiar,check,mnms.jpg,gummybears.jpg,NA,55,994408,kid,5,0,4,mnms,
NA,kid_29,29,NA,bear,7076.1,familiar,check,firetruck.jpg,ambulance.jpg,NA,56,1001987,kid,5,1,4,bear,
NA,kid_29,29,NA,bird,6897.2,familiar,check,parrot.jpg,pigeon.jpg,NA,57,1009388,kid,5,0,4,bird,
NA,kid_29,29,NA,shirt,7445.9,familiar,check,dressshirt.jpg,campshirt.jpg,NA,58,1017339,kid,5,1,5,shirt,
NA,kid_29,29,NA,red flower,8810.3,familiar,check,rose.jpg,daisy.jpg,NA,59,1026652,kid,5,0,10,redflower,
NA,kid_29,29,NA,polar bear,8170.8,familiar,check,polarbear.jpg,grizzlybear.jpg,NA,60,1035328,kid,5,1,10,polarbear,
NA,kid_29,29,NA,dog,6363.8,familiar,check,husky.jpg,dalmatian.jpg,NA,61,1042194,kid,5,0,3,dog,
NA,kid_29,29,NA,table,8568.2,familiar,check,pug.jpg,rabbit.jpg,NA,62,1051265,kid,5,1,5,table,
NA,kid_29,29,NA,cup,7155.5,familiar,check,apple.jpg,pear.jpg,NA,63,1058923,kid,5,1,3,cup,
NA,kid_3,3,NA,table,7327,familiar,close,diningtable.jpg,picnictable.jpg,NA,19,1132178,kid,5,NA,5,table,0
NA,kid_3,3,NA,bird,6393.7,familiar,close,sparrow.jpg,eagle.jpg,NA,20,1139078,kid,5,NA,4,bird,0
NA,kid_3,3,NA,fish,3992.4,familiar,close,goldfish.jpg,swordfish.jpg,NA,21,1143580,kid,5,NA,4,fish,0
NA,kid_3,3,NA,dog,4213.1,familiar,close,germanshepherd.jpg,pug.jpg,NA,22,1148303,kid,5,NA,3,dog,0
NA,kid_3,3,NA,shirt,4816.9,familiar,close,poloshirt.jpg,hawaiishirt.jpg,NA,23,1153625,kid,5,NA,5,shirt,0
NA,kid_3,3,NA,blue car,5077.6,familiar,close,sedan.jpg,sportscar.jpg,NA,24,1159209,kid,5,NA,8,bluecar,1
NA,kid_3,3,NA,bear,4574.6,familiar,close,grizzlybear.jpg,polarbear.jpg,NA,25,1164288,kid,5,NA,4,bear,0
NA,kid_3,3,NA,jellybeans,5564,familiar,close,jellybeans.jpg,gummybears.jpg,NA,26,1170359,kid,5,NA,10,jellybeans,1
NA,kid_3,3,NA,diamond,10959.1,tangram,close,H1.jpg,I1.jpg,NA,28,1194817,kid,5,NA,7,diamond,
NA,kid_3,3,NA,square,7070,tangram,close,tangram-48.jpg,tangram-187.jpg,NA,29,1202397,kid,5,NA,6,square,
NA,kid_3,3,NA,square,6086.6,tangram,close,tangram-164.jpg,tangram-183.jpg,NA,30,1208989,kid,5,NA,6,square,
NA,kid_3,3,NA,rectangle,8089.2,tangram,close,B1.jpg,P1.jpg,NA,31,1217583,kid,5,NA,9,rectangle,
NA,kid_3,3,NA,diamond,9445.1,tangram,close,A2.jpg,tangram-99.jpg,NA,32,1227537,kid,5,NA,7,diamond,
NA,kid_3,3,NA,square,6582.4,tangram,close,tangram-90.jpg,tangram-81.jpg,NA,33,1234628,kid,5,NA,6,square,
NA,kid_3,3,NA,square,6724.5,tangram,close,tangram-55.jpg,N1.jpg,NA,34,1241859,kid,5,NA,6,square,
NA,kid_3,3,NA,diamond,5710.5,tangram,close,tangram-67.jpg,tangram-32.jpg,NA,35,1248075,kid,5,NA,7,diamond,
NA,kid_3,3,NA,shirt,5673.8,familiar,far,poloshirt.jpg,dress.jpg,NA,37,1266258,kid,5,NA,5,shirt,1
