iterationName,id,wID,aID,utterance,rt,target_type,competitor_type,target,foil,trial_type,trial_index,time_elapsed,age_group,age,button_pressed,utt_length,clean_utt
pilot2,adult_1,1,3CFJTT4SXUF1D2GSR28PLOG55D4I71,blue shirt,8417.695,familiar,isolated,poloshirt.jpg,hawaiishirt.jpg,survey-text,3,41912,adult,NA,NA,10,blueshirt
pilot2,adult_1,1,3CFJTT4SXUF1D2GSR28PLOG55D4I71,bear,4069.31,familiar,isolated,grizzlybear.jpg,polarbear.jpg,survey-text,4,46484,adult,NA,NA,4,bear
pilot2,adult_1,1,3CFJTT4SXUF1D2GSR28PLOG55D4I71,table,5345.835,familiar,isolated,diningtable.jpg,picnictable.jpg,survey-text,5,52340,adult,NA,NA,5,table
pilot2,adult_1,1,3CFJTT4SXUF1D2GSR28PLOG55D4I71,german shepard,7552.99,familiar,isolated,germanshepherd.jpg,pug.jpg,survey-text,6,60410,adult,NA,NA,14,germanshepard
pilot2,adult_1,1,3CFJTT4SXUF1D2GSR28PLOG55D4I71,bird,3847.965,familiar,isolated,sparrow.jpg,eagle.jpg,survey-text,7,64759,adult,NA,NA,4,bird
pilot2,adult_1,1,3CFJTT4SXUF1D2GSR28PLOG55D4I71,candy,4228.04,familiar,isolated,mnms.jpg,gummybears.jpg,survey-text,8,69489,adult,NA,NA,5,candy
pilot2,adult_1,1,3CFJTT4SXUF1D2GSR28PLOG55D4I71,goldfish,5104.135,familiar,isolated,goldfish.jpg,swordfish.jpg,survey-text,9,75095,adult,NA,NA,8,goldfish
pilot2,adult_1,1,3CFJTT4SXUF1D2GSR28PLOG55D4I71,sedan,8618.155,familiar,isolated,sedan.jpg,sportscar.jpg,survey-text,10,84215,adult,NA,NA,5,sedan
pilot2,adult_1,1,3CFJTT4SXUF1D2GSR28PLOG55D4I71,kicking,7656.72,tangram,far,tangram-48.jpg,D1.jpg,survey-text,12,100567,adult,NA,NA,7,kick
pilot2,adult_1,1,3CFJTT4SXUF1D2GSR28PLOG55D4I71,high kick,8973.53,tangram,far,tangram-164.jpg,tangram-64.jpg,survey-text,13,110044,adult,NA,NA,9,highkick
pilot2,adult_1,1,3CFJTT4SXUF1D2GSR28PLOG55D4I71,triangle dance,12892.59,tangram,far,tangram-90.jpg,tangram-120.jpg,survey-text,14,123440,adult,NA,NA,14,triangledance
pilot2,adult_1,1,3CFJTT4SXUF1D2GSR28PLOG55D4I71,beggar,8926.53,tangram,far,H1.jpg,tangram-8.jpg,survey-text,15,132870,adult,NA,NA,6,beggar
pilot2,adult_1,1,3CFJTT4SXUF1D2GSR28PLOG55D4I71,overhead throw,11590.82,tangram,far,A2.jpg,C1.jpg,survey-text,16,144968,adult,NA,NA,14,overheadthrow
pilot2,adult_1,1,3CFJTT4SXUF1D2GSR28PLOG55D4I71,sneaky sprint,7184.65,tangram,far,tangram-55.jpg,tangram-143.jpg,survey-text,17,152655,adult,NA,NA,13,sneakysprint
pilot2,adult_1,1,3CFJTT4SXUF1D2GSR28PLOG55D4I71,dejected walk,7025.66,tangram,far,B1.jpg,tangram-4.jpg,survey-text,18,160183,adult,NA,NA,13,dejectwalk
pilot2,adult_1,1,3CFJTT4SXUF1D2GSR28PLOG55D4I71,triangle sprinting,16845.985,tangram,far,tangram-67.jpg,G1.jpg,survey-text,19,177531,adult,NA,NA,18,trianglesprint
pilot2,adult_1,1,3CFJTT4SXUF1D2GSR28PLOG55D4I71,blue polo,7947.95,familiar,close,poloshirt.jpg,hawaiishirt.jpg,survey-text,21,192201,adult,NA,NA,9,bluepolo
pilot2,adult_1,1,3CFJTT4SXUF1D2GSR28PLOG55D4I71,blue sedan,5616.97,familiar,close,sedan.jpg,sportscar.jpg,survey-text,22,198323,adult,NA,NA,10,bluesedan
pilot2,adult_1,1,3CFJTT4SXUF1D2GSR28PLOG55D4I71,brown bear,5187.515,familiar,close,grizzlybear.jpg,polarbear.jpg,survey-text,23,204013,adult,NA,NA,10,brownbear
pilot2,adult_1,1,3CFJTT4SXUF1D2GSR28PLOG55D4I71,coated candies,11335.445,familiar,close,mnms.jpg,gummybears.jpg,survey-text,24,215854,adult,NA,NA,14,coatcandy
pilot2,adult_1,1,3CFJTT4SXUF1D2GSR28PLOG55D4I71,small bird,6308.45,familiar,close,sparrow.jpg,eagle.jpg,survey-text,25,222674,adult,NA,NA,10,smallbird
pilot2,adult_1,1,3CFJTT4SXUF1D2GSR28PLOG55D4I71,wide table,6811.96,familiar,close,diningtable.jpg,picnictable.jpg,survey-text,26,229989,adult,NA,NA,10,widetable
pilot2,adult_1,1,3CFJTT4SXUF1D2GSR28PLOG55D4I71,german shepard,6088.6,familiar,close,germanshepherd.jpg,pug.jpg,survey-text,27,236580,adult,NA,NA,14,germanshepard
pilot2,adult_1,1,3CFJTT4SXUF1D2GSR28PLOG55D4I71,goldfish,4066.545,familiar,close,goldfish.jpg,swordfish.jpg,survey-text,28,241149,adult,NA,NA,8,goldfish
pilot2,adult_1,1,3CFJTT4SXUF1D2GSR28PLOG55D4I71,german shepard,5146.015,familiar,far,germanshepherd.jpg,cow.jpg,survey-text,30,249839,adult,NA,NA,14,germanshepard
pilot2,adult_1,1,3CFJTT4SXUF1D2GSR28PLOG55D4I71,coated candies,4435.73,familiar,far,mnms.jpg,pretzels.jpg,survey-text,31,254782,adult,NA,NA,14,coatcandy
pilot2,adult_1,1,3CFJTT4SXUF1D2GSR28PLOG55D4I71,wide table,4521.025,familiar,far,diningtable.jpg,wardrobe.jpg,survey-text,32,259805,adult,NA,NA,10,widetable
pilot2,adult_1,1,3CFJTT4SXUF1D2GSR28PLOG55D4I71,brown bear,4178,familiar,far,grizzlybear.jpg,lion.jpg,survey-text,33,264492,adult,NA,NA,10,brownbear
pilot2,adult_1,1,3CFJTT4SXUF1D2GSR28PLOG55D4I71,goldfish,2415.47,familiar,far,goldfish.jpg,iguana.jpg,survey-text,34,267410,adult,NA,NA,8,goldfish
pilot2,adult_1,1,3CFJTT4SXUF1D2GSR28PLOG55D4I71,blue sedan,6299.795,familiar,far,sedan.jpg,firetruck.jpg,survey-text,35,274214,adult,NA,NA,10,bluesedan
pilot2,adult_1,1,3CFJTT4SXUF1D2GSR28PLOG55D4I71,blue polo,5251.175,familiar,far,poloshirt.jpg,dress.jpg,survey-text,36,279968,adult,NA,NA,9,bluepolo
pilot2,adult_1,1,3CFJTT4SXUF1D2GSR28PLOG55D4I71,small bird,3031.845,familiar,far,sparrow.jpg,squirrel.jpg,survey-text,37,283510,adult,NA,NA,10,smallbird
pilot2,adult_1,1,3CFJTT4SXUF1D2GSR28PLOG55D4I71,sneaky sprint,5533.115,tangram,isolated,tangram-55.jpg,N1.jpg,survey-text,39,292614,adult,NA,NA,13,sneakysprint
pilot2,adult_1,1,3CFJTT4SXUF1D2GSR28PLOG55D4I71,squat kick,19770.91,tangram,isolated,tangram-164.jpg,tangram-183.jpg,survey-text,40,312894,adult,NA,NA,10,squatkick
pilot2,adult_1,1,3CFJTT4SXUF1D2GSR28PLOG55D4I71,overhead throw,4076.735,tangram,isolated,A2.jpg,tangram-99.jpg,survey-text,41,317473,adult,NA,NA,14,overheadthrow
pilot2,adult_1,1,3CFJTT4SXUF1D2GSR28PLOG55D4I71,triangle sprinting,6154.805,tangram,isolated,tangram-67.jpg,tangram-32.jpg,survey-text,42,324131,adult,NA,NA,18,trianglesprint
pilot2,adult_1,1,3CFJTT4SXUF1D2GSR28PLOG55D4I71,dejected walk,2250.26,tangram,isolated,B1.jpg,P1.jpg,survey-text,43,326883,adult,NA,NA,13,dejectwalk
pilot2,adult_1,1,3CFJTT4SXUF1D2GSR28PLOG55D4I71,triangle walking,20119.27,tangram,isolated,tangram-90.jpg,tangram-81.jpg,survey-text,44,347506,adult,NA,NA,16,trianglewalk
pilot2,adult_1,1,3CFJTT4SXUF1D2GSR28PLOG55D4I71,horizontal kick,10510.91,tangram,isolated,tangram-48.jpg,tangram-187.jpg,survey-text,45,358522,adult,NA,NA,15,horizontalkick
pilot2,adult_1,1,3CFJTT4SXUF1D2GSR28PLOG55D4I71,beggar,5826.7,tangram,isolated,H1.jpg,I1.jpg,survey-text,46,364852,adult,NA,NA,6,beggar
pilot2,adult_1,1,3CFJTT4SXUF1D2GSR28PLOG55D4I71,triangle walking,6207.125,tangram,close,tangram-90.jpg,tangram-81.jpg,survey-text,48,376555,adult,NA,NA,16,trianglewalk
pilot2,adult_1,1,3CFJTT4SXUF1D2GSR28PLOG55D4I71,triangle sprinting,10402.43,tangram,close,tangram-67.jpg,tangram-32.jpg,survey-text,49,387465,adult,NA,NA,18,trianglesprint
pilot2,adult_1,1,3CFJTT4SXUF1D2GSR28PLOG55D4I71,horizontal kick,6297.135,tangram,close,tangram-48.jpg,tangram-187.jpg,survey-text,50,394272,adult,NA,NA,15,horizontalkick
pilot2,adult_1,1,3CFJTT4SXUF1D2GSR28PLOG55D4I71,beggar,4920.605,tangram,close,H1.jpg,I1.jpg,survey-text,51,399703,adult,NA,NA,6,beggar
pilot2,adult_1,1,3CFJTT4SXUF1D2GSR28PLOG55D4I71,overhead throw,4306.965,tangram,close,A2.jpg,tangram-99.jpg,survey-text,52,404513,adult,NA,NA,14,overheadthrow
pilot2,adult_1,1,3CFJTT4SXUF1D2GSR28PLOG55D4I71,dejected walk,4674.92,tangram,close,B1.jpg,P1.jpg,survey-text,53,409690,adult,NA,NA,13,dejectwalk
pilot2,adult_1,1,3CFJTT4SXUF1D2GSR28PLOG55D4I71,sneaky sprint,4420.595,tangram,close,tangram-55.jpg,N1.jpg,survey-text,54,414613,adult,NA,NA,13,sneakysprint
pilot2,adult_1,1,3CFJTT4SXUF1D2GSR28PLOG55D4I71,horizontal kick,6414.815,tangram,close,tangram-164.jpg,tangram-183.jpg,survey-text,55,421545,adult,NA,NA,15,horizontalkick
pilot2,adult_2,2,3TAYZSBPLMXJLFMIQ2L8TZ5K3082SV,golden fish,5702.46,familiar,close,goldfish.jpg,swordfish.jpg,survey-text,3,23047,adult,NA,NA,11,goldenfish
pilot2,adult_2,2,3TAYZSBPLMXJLFMIQ2L8TZ5K3082SV,plain t shirt,7215.35,familiar,close,poloshirt.jpg,hawaiishirt.jpg,survey-text,4,30779,adult,NA,NA,13,plaintshirt
pilot2,adult_2,2,3TAYZSBPLMXJLFMIQ2L8TZ5K3082SV,blue car,8118.795,familiar,close,sedan.jpg,sportscar.jpg,survey-text,5,39423,adult,NA,NA,8,bluecar
pilot2,adult_2,2,3TAYZSBPLMXJLFMIQ2L8TZ5K3082SV,german shephard,5192.175,familiar,close,germanshepherd.jpg,pug.jpg,survey-text,6,45127,adult,NA,NA,15,germanshephard
pilot2,adult_2,2,3TAYZSBPLMXJLFMIQ2L8TZ5K3082SV,mnms,3622.295,familiar,close,mnms.jpg,gummybears.jpg,survey-text,7,49264,adult,NA,NA,4,mnms
pilot2,adult_2,2,3TAYZSBPLMXJLFMIQ2L8TZ5K3082SV,wild bear,7117.8,familiar,close,grizzlybear.jpg,polarbear.jpg,survey-text,8,56896,adult,NA,NA,9,wildbear
pilot2,adult_2,2,3TAYZSBPLMXJLFMIQ2L8TZ5K3082SV,pigeon,9273.655,familiar,close,sparrow.jpg,eagle.jpg,survey-text,9,66683,adult,NA,NA,6,pigeon
pilot2,adult_2,2,3TAYZSBPLMXJLFMIQ2L8TZ5K3082SV,table,4445.87,familiar,close,diningtable.jpg,picnictable.jpg,survey-text,10,71644,adult,NA,NA,5,table
pilot2,adult_2,2,3TAYZSBPLMXJLFMIQ2L8TZ5K3082SV,bird,3285.015,familiar,far,sparrow.jpg,squirrel.jpg,survey-text,12,78254,adult,NA,NA,4,bird
pilot2,adult_2,2,3TAYZSBPLMXJLFMIQ2L8TZ5K3082SV,dog,2850.56,familiar,far,germanshepherd.jpg,cow.jpg,survey-text,13,81617,adult,NA,NA,3,dog
pilot2,adult_2,2,3TAYZSBPLMXJLFMIQ2L8TZ5K3082SV,mnms,3000.615,familiar,far,mnms.jpg,pretzels.jpg,survey-text,14,85130,adult,NA,NA,4,mnms
pilot2,adult_2,2,3TAYZSBPLMXJLFMIQ2L8TZ5K3082SV,table,2998.2,familiar,far,diningtable.jpg,wardrobe.jpg,survey-text,15,88646,adult,NA,NA,5,table
pilot2,adult_2,2,3TAYZSBPLMXJLFMIQ2L8TZ5K3082SV,men tshirt,4522.3,familiar,far,poloshirt.jpg,dress.jpg,survey-text,16,93690,adult,NA,NA,10,mantshirt
pilot2,adult_2,2,3TAYZSBPLMXJLFMIQ2L8TZ5K3082SV,car,3321.075,familiar,far,sedan.jpg,firetruck.jpg,survey-text,17,97543,adult,NA,NA,3,car
pilot2,adult_2,2,3TAYZSBPLMXJLFMIQ2L8TZ5K3082SV,bear,3108.445,familiar,far,grizzlybear.jpg,lion.jpg,survey-text,18,101176,adult,NA,NA,4,bear
pilot2,adult_2,2,3TAYZSBPLMXJLFMIQ2L8TZ5K3082SV,fish,3265.39,familiar,far,goldfish.jpg,iguana.jpg,survey-text,19,104956,adult,NA,NA,4,fish
pilot2,adult_2,2,3TAYZSBPLMXJLFMIQ2L8TZ5K3082SV,mnms,2594.935,familiar,isolated,mnms.jpg,gummybears.jpg,survey-text,21,111385,adult,NA,NA,4,mnms
pilot2,adult_2,2,3TAYZSBPLMXJLFMIQ2L8TZ5K3082SV,dog,2299.8,familiar,isolated,germanshepherd.jpg,pug.jpg,survey-text,22,114215,adult,NA,NA,3,dog
pilot2,adult_2,2,3TAYZSBPLMXJLFMIQ2L8TZ5K3082SV,tshirt,5813.62,familiar,isolated,poloshirt.jpg,hawaiishirt.jpg,survey-text,23,120541,adult,NA,NA,6,tshirt
pilot2,adult_2,2,3TAYZSBPLMXJLFMIQ2L8TZ5K3082SV,table,3719.295,familiar,isolated,diningtable.jpg,picnictable.jpg,survey-text,24,124777,adult,NA,NA,5,table
pilot2,adult_2,2,3TAYZSBPLMXJLFMIQ2L8TZ5K3082SV,car,1886.255,familiar,isolated,sedan.jpg,sportscar.jpg,survey-text,25,127176,adult,NA,NA,3,car
pilot2,adult_2,2,3TAYZSBPLMXJLFMIQ2L8TZ5K3082SV,fish,2516.095,familiar,isolated,goldfish.jpg,swordfish.jpg,survey-text,26,130216,adult,NA,NA,4,fish
pilot2,adult_2,2,3TAYZSBPLMXJLFMIQ2L8TZ5K3082SV,bear,2570.745,familiar,isolated,grizzlybear.jpg,polarbear.jpg,survey-text,27,133297,adult,NA,NA,4,bear
pilot2,adult_2,2,3TAYZSBPLMXJLFMIQ2L8TZ5K3082SV,bird,2577.725,familiar,isolated,sparrow.jpg,eagle.jpg,survey-text,28,136396,adult,NA,NA,4,bird
pilot2,adult_2,2,3TAYZSBPLMXJLFMIQ2L8TZ5K3082SV,walking,2338.245,tangram,close,B1.jpg,P1.jpg,survey-text,30,141757,adult,NA,NA,7,walk
pilot2,adult_2,2,3TAYZSBPLMXJLFMIQ2L8TZ5K3082SV,rnning,2027.15,tangram,close,tangram-55.jpg,N1.jpg,survey-text,31,144296,adult,NA,NA,6,rnning
pilot2,adult_2,2,3TAYZSBPLMXJLFMIQ2L8TZ5K3082SV,jaywalking,7393.67,tangram,close,tangram-48.jpg,tangram-187.jpg,survey-text,32,152216,adult,NA,NA,10,jaywalking
pilot2,adult_2,2,3TAYZSBPLMXJLFMIQ2L8TZ5K3082SV,holding pot,5116.82,tangram,close,H1.jpg,I1.jpg,survey-text,33,157846,adult,NA,NA,11,holdpot
pilot2,adult_2,2,3TAYZSBPLMXJLFMIQ2L8TZ5K3082SV,falling,4146.8,tangram,close,tangram-164.jpg,tangram-183.jpg,survey-text,34,162511,adult,NA,NA,7,fall
pilot2,adult_2,2,3TAYZSBPLMXJLFMIQ2L8TZ5K3082SV,running,5012.845,tangram,close,tangram-67.jpg,tangram-32.jpg,survey-text,35,168036,adult,NA,NA,7,run
pilot2,adult_2,2,3TAYZSBPLMXJLFMIQ2L8TZ5K3082SV,walking backwards,3723.19,tangram,close,A2.jpg,tangram-99.jpg,survey-text,36,172277,adult,NA,NA,17,walkbackwards
pilot2,adult_2,2,3TAYZSBPLMXJLFMIQ2L8TZ5K3082SV,walking fast,4954.81,tangram,close,tangram-90.jpg,tangram-81.jpg,survey-text,37,177753,adult,NA,NA,12,walkfast
pilot2,adult_2,2,3TAYZSBPLMXJLFMIQ2L8TZ5K3082SV,running,2852.5,tangram,isolated,tangram-55.jpg,N1.jpg,survey-text,39,183478,adult,NA,NA,7,run
pilot2,adult_2,2,3TAYZSBPLMXJLFMIQ2L8TZ5K3082SV,walking back,3046.795,tangram,isolated,A2.jpg,tangram-99.jpg,survey-text,40,187044,adult,NA,NA,12,walkback
pilot2,adult_2,2,3TAYZSBPLMXJLFMIQ2L8TZ5K3082SV,walking slow,3509.375,tangram,isolated,B1.jpg,P1.jpg,survey-text,41,191079,adult,NA,NA,12,walkslow
pilot2,adult_2,2,3TAYZSBPLMXJLFMIQ2L8TZ5K3082SV,falling,2806.635,tangram,isolated,tangram-164.jpg,tangram-183.jpg,survey-text,42,194398,adult,NA,NA,7,fall
pilot2,adult_2,2,3TAYZSBPLMXJLFMIQ2L8TZ5K3082SV,holding something,4185.69,tangram,isolated,H1.jpg,I1.jpg,survey-text,43,199100,adult,NA,NA,17,hold
pilot2,adult_2,2,3TAYZSBPLMXJLFMIQ2L8TZ5K3082SV,jaywalking,3965.78,tangram,isolated,tangram-48.jpg,tangram-187.jpg,survey-text,44,203578,adult,NA,NA,10,jaywalking
pilot2,adult_2,2,3TAYZSBPLMXJLFMIQ2L8TZ5K3082SV,running slow,10077.52,tangram,isolated,tangram-90.jpg,tangram-81.jpg,survey-text,45,214187,adult,NA,NA,12,runslow
pilot2,adult_2,2,3TAYZSBPLMXJLFMIQ2L8TZ5K3082SV,running,2185.245,tangram,isolated,tangram-67.jpg,tangram-32.jpg,survey-text,46,216904,adult,NA,NA,7,run
pilot2,adult_2,2,3TAYZSBPLMXJLFMIQ2L8TZ5K3082SV,running,5933.595,tangram,far,tangram-90.jpg,tangram-120.jpg,survey-text,48,225509,adult,NA,NA,7,run
pilot2,adult_2,2,3TAYZSBPLMXJLFMIQ2L8TZ5K3082SV,walking,4134.585,tangram,far,A2.jpg,C1.jpg,survey-text,49,230166,adult,NA,NA,7,walk
pilot2,adult_2,2,3TAYZSBPLMXJLFMIQ2L8TZ5K3082SV,walking,2649.51,tangram,far,tangram-48.jpg,D1.jpg,survey-text,50,233345,adult,NA,NA,7,walk
pilot2,adult_2,2,3TAYZSBPLMXJLFMIQ2L8TZ5K3082SV,runing,3767.13,tangram,far,tangram-67.jpg,G1.jpg,survey-text,51,237639,adult,NA,NA,6,runing
pilot2,adult_2,2,3TAYZSBPLMXJLFMIQ2L8TZ5K3082SV,holding something,4019.645,tangram,far,H1.jpg,tangram-8.jpg,survey-text,52,242179,adult,NA,NA,17,hold
pilot2,adult_2,2,3TAYZSBPLMXJLFMIQ2L8TZ5K3082SV,falling,2916.14,tangram,far,tangram-164.jpg,tangram-64.jpg,survey-text,53,245610,adult,NA,NA,7,fall
pilot2,adult_2,2,3TAYZSBPLMXJLFMIQ2L8TZ5K3082SV,walking,2292.42,tangram,far,B1.jpg,tangram-4.jpg,survey-text,54,248424,adult,NA,NA,7,walk
pilot2,adult_2,2,3TAYZSBPLMXJLFMIQ2L8TZ5K3082SV,walking,2359.185,tangram,far,tangram-55.jpg,tangram-143.jpg,survey-text,55,251304,adult,NA,NA,7,walk
pilot2,adult_4,4,3F6KKYWMNCQ98CSTFVO3QOMIDN1DN5,round colorful,14641.715,familiar,close,mnms.jpg,gummybears.jpg,survey-text,3,90818,adult,NA,NA,14,roundcolor
pilot2,adult_4,4,3F6KKYWMNCQ98CSTFVO3QOMIDN1DN5,four legs,11110.88,familiar,close,germanshepherd.jpg,pug.jpg,survey-text,4,102444,adult,NA,NA,9,fourleg
pilot2,adult_4,4,3F6KKYWMNCQ98CSTFVO3QOMIDN1DN5,four doors,17270.035,familiar,close,sedan.jpg,sportscar.jpg,survey-text,5,120225,adult,NA,NA,10,fourdoor
pilot2,adult_4,4,3F6KKYWMNCQ98CSTFVO3QOMIDN1DN5,brown beak,13823.245,familiar,close,sparrow.jpg,eagle.jpg,survey-text,6,134560,adult,NA,NA,10,brownbeak
pilot2,adult_4,4,3F6KKYWMNCQ98CSTFVO3QOMIDN1DN5,plain collared,9140.62,familiar,close,poloshirt.jpg,hawaiishirt.jpg,survey-text,7,144219,adult,NA,NA,14,plaincollar
pilot2,adult_4,4,3F6KKYWMNCQ98CSTFVO3QOMIDN1DN5,brown bear,10669.35,familiar,close,grizzlybear.jpg,polarbear.jpg,survey-text,8,155400,adult,NA,NA,10,brownbear
pilot2,adult_4,4,3F6KKYWMNCQ98CSTFVO3QOMIDN1DN5,gold fish,7800.96,familiar,close,goldfish.jpg,swordfish.jpg,survey-text,9,163715,adult,NA,NA,9,goldfish
pilot2,adult_4,4,3F6KKYWMNCQ98CSTFVO3QOMIDN1DN5,brown table,8906.74,familiar,close,diningtable.jpg,picnictable.jpg,survey-text,10,173144,adult,NA,NA,11,browntable
pilot2,adult_4,4,3F6KKYWMNCQ98CSTFVO3QOMIDN1DN5,light blue,8339.32,familiar,far,poloshirt.jpg,dress.jpg,survey-text,12,187366,adult,NA,NA,10,lightblue
pilot2,adult_4,4,3F6KKYWMNCQ98CSTFVO3QOMIDN1DN5,colorful,4210.215,familiar,far,mnms.jpg,pretzels.jpg,survey-text,13,192098,adult,NA,NA,8,colorful
pilot2,adult_4,4,3F6KKYWMNCQ98CSTFVO3QOMIDN1DN5,beak,2902.425,familiar,far,sparrow.jpg,squirrel.jpg,survey-text,14,195521,adult,NA,NA,4,beak
pilot2,adult_4,4,3F6KKYWMNCQ98CSTFVO3QOMIDN1DN5,orange fish,5519.2,familiar,far,goldfish.jpg,iguana.jpg,survey-text,15,201559,adult,NA,NA,11,orangefish
pilot2,adult_4,4,3F6KKYWMNCQ98CSTFVO3QOMIDN1DN5,four legs,4585.09,familiar,far,diningtable.jpg,wardrobe.jpg,survey-text,16,206650,adult,NA,NA,9,fourleg
pilot2,adult_4,4,3F6KKYWMNCQ98CSTFVO3QOMIDN1DN5,grizzly,6435.085,familiar,far,grizzlybear.jpg,lion.jpg,survey-text,17,213611,adult,NA,NA,7,grizzly
pilot2,adult_4,4,3F6KKYWMNCQ98CSTFVO3QOMIDN1DN5,bark,9099.025,familiar,far,germanshepherd.jpg,cow.jpg,survey-text,18,223222,adult,NA,NA,4,bark
pilot2,adult_4,4,3F6KKYWMNCQ98CSTFVO3QOMIDN1DN5,family car,10874.9,familiar,far,sedan.jpg,firetruck.jpg,survey-text,19,234613,adult,NA,NA,10,familycar
pilot2,adult_4,4,3F6KKYWMNCQ98CSTFVO3QOMIDN1DN5,collared shirt,9872.055,familiar,isolated,poloshirt.jpg,hawaiishirt.jpg,survey-text,21,248318,adult,NA,NA,14,collarshirt
pilot2,adult_4,4,3F6KKYWMNCQ98CSTFVO3QOMIDN1DN5,dining table,9344.39,familiar,isolated,diningtable.jpg,picnictable.jpg,survey-text,22,258183,adult,NA,NA,12,dinetable
pilot2,adult_4,4,3F6KKYWMNCQ98CSTFVO3QOMIDN1DN5,grizzly,4028.625,familiar,isolated,grizzlybear.jpg,polarbear.jpg,survey-text,23,262728,adult,NA,NA,7,grizzly
pilot2,adult_4,4,3F6KKYWMNCQ98CSTFVO3QOMIDN1DN5,small bird,10018.8,familiar,isolated,sparrow.jpg,eagle.jpg,survey-text,24,273257,adult,NA,NA,10,smallbird
pilot2,adult_4,4,3F6KKYWMNCQ98CSTFVO3QOMIDN1DN5,dog,10007.955,familiar,isolated,germanshepherd.jpg,pug.jpg,survey-text,25,283778,adult,NA,NA,3,dog
pilot2,adult_4,4,3F6KKYWMNCQ98CSTFVO3QOMIDN1DN5,candy,4800.275,familiar,isolated,mnms.jpg,gummybears.jpg,survey-text,26,289102,adult,NA,NA,5,candy
pilot2,adult_4,4,3F6KKYWMNCQ98CSTFVO3QOMIDN1DN5,fish,1863.185,familiar,isolated,goldfish.jpg,swordfish.jpg,survey-text,27,291477,adult,NA,NA,4,fish
pilot2,adult_4,4,3F6KKYWMNCQ98CSTFVO3QOMIDN1DN5,car,5062.935,familiar,isolated,sedan.jpg,sportscar.jpg,survey-text,28,297057,adult,NA,NA,3,car
pilot2,adult_4,4,3F6KKYWMNCQ98CSTFVO3QOMIDN1DN5,balanced square,21058.23,tangram,close,tangram-55.jpg,N1.jpg,survey-text,30,321802,adult,NA,NA,15,balancesquare
pilot2,adult_4,4,3F6KKYWMNCQ98CSTFVO3QOMIDN1DN5,looking down,4774.785,tangram,close,B1.jpg,P1.jpg,survey-text,31,327093,adult,NA,NA,12,lookdown
pilot2,adult_4,4,3F6KKYWMNCQ98CSTFVO3QOMIDN1DN5,square tilted,11758.33,tangram,close,tangram-48.jpg,tangram-187.jpg,survey-text,32,339365,adult,NA,NA,13,squaretilt
pilot2,adult_4,4,3F6KKYWMNCQ98CSTFVO3QOMIDN1DN5,upsidedown triangle,20875.56,tangram,close,tangram-90.jpg,tangram-81.jpg,survey-text,33,360761,adult,NA,NA,19,upsidedowntriangle
pilot2,adult_4,4,3F6KKYWMNCQ98CSTFVO3QOMIDN1DN5,balanced square,10989.565,tangram,close,tangram-164.jpg,tangram-183.jpg,survey-text,34,372274,adult,NA,NA,15,balancesquare
pilot2,adult_4,4,3F6KKYWMNCQ98CSTFVO3QOMIDN1DN5,running,6316.455,tangram,close,tangram-67.jpg,tangram-32.jpg,survey-text,35,379106,adult,NA,NA,7,run
pilot2,adult_4,4,3F6KKYWMNCQ98CSTFVO3QOMIDN1DN5,shapes compressed,11014.3,tangram,close,H1.jpg,I1.jpg,survey-text,36,390641,adult,NA,NA,17,shapecompress
pilot2,adult_4,4,3F6KKYWMNCQ98CSTFVO3QOMIDN1DN5,rhombus,6724.675,tangram,close,A2.jpg,tangram-99.jpg,survey-text,37,397887,adult,NA,NA,7,rhombus
pilot2,adult_4,4,3F6KKYWMNCQ98CSTFVO3QOMIDN1DN5,diamond head,9501.465,tangram,isolated,H1.jpg,I1.jpg,survey-text,39,410129,adult,NA,NA,12,diamondhead
pilot2,adult_4,4,3F6KKYWMNCQ98CSTFVO3QOMIDN1DN5,running,3199.355,tangram,isolated,tangram-55.jpg,N1.jpg,survey-text,40,413843,adult,NA,NA,7,run
pilot2,adult_4,4,3F6KKYWMNCQ98CSTFVO3QOMIDN1DN5,looking down,6462.515,tangram,isolated,B1.jpg,P1.jpg,survey-text,41,420820,adult,NA,NA,12,lookdown
pilot2,adult_4,4,3F6KKYWMNCQ98CSTFVO3QOMIDN1DN5,kicking,3310.555,tangram,isolated,tangram-48.jpg,tangram-187.jpg,survey-text,42,424653,adult,NA,NA,7,kick
pilot2,adult_4,4,3F6KKYWMNCQ98CSTFVO3QOMIDN1DN5,balanced square,13531.66,tangram,isolated,tangram-164.jpg,tangram-183.jpg,survey-text,43,438696,adult,NA,NA,15,balancesquare
pilot2,adult_4,4,3F6KKYWMNCQ98CSTFVO3QOMIDN1DN5,upsidedown triangle,4518.175,tangram,isolated,tangram-90.jpg,tangram-81.jpg,survey-text,44,443745,adult,NA,NA,19,upsidedowntriangle
pilot2,adult_4,4,3F6KKYWMNCQ98CSTFVO3QOMIDN1DN5,rhombus,6616.06,tangram,isolated,A2.jpg,tangram-99.jpg,survey-text,45,450885,adult,NA,NA,7,rhombus
pilot2,adult_4,4,3F6KKYWMNCQ98CSTFVO3QOMIDN1DN5,running,3550.535,tangram,isolated,tangram-67.jpg,tangram-32.jpg,survey-text,46,454948,adult,NA,NA,7,run
pilot2,adult_4,4,3F6KKYWMNCQ98CSTFVO3QOMIDN1DN5,running,5341.67,tangram,far,tangram-67.jpg,G1.jpg,survey-text,48,462782,adult,NA,NA,7,run
pilot2,adult_4,4,3F6KKYWMNCQ98CSTFVO3QOMIDN1DN5,rhombus,6910.97,tangram,far,A2.jpg,C1.jpg,survey-text,49,470218,adult,NA,NA,7,rhombus
pilot2,adult_4,4,3F6KKYWMNCQ98CSTFVO3QOMIDN1DN5,diamond head,5078.905,tangram,far,H1.jpg,tangram-8.jpg,survey-text,50,475812,adult,NA,NA,12,diamondhead
pilot2,adult_4,4,3F6KKYWMNCQ98CSTFVO3QOMIDN1DN5,kicking,4877.055,tangram,far,tangram-48.jpg,D1.jpg,survey-text,51,481210,adult,NA,NA,7,kick
pilot2,adult_4,4,3F6KKYWMNCQ98CSTFVO3QOMIDN1DN5,running,3016.08,tangram,far,tangram-55.jpg,tangram-143.jpg,survey-text,52,484738,adult,NA,NA,7,run
pilot2,adult_4,4,3F6KKYWMNCQ98CSTFVO3QOMIDN1DN5,upsidedown triangle,4325.8,tangram,far,tangram-90.jpg,tangram-120.jpg,survey-text,53,489576,adult,NA,NA,19,upsidedowntriangle
pilot2,adult_4,4,3F6KKYWMNCQ98CSTFVO3QOMIDN1DN5,looking down,2544.69,tangram,far,B1.jpg,tangram-4.jpg,survey-text,54,492642,adult,NA,NA,12,lookdown
pilot2,adult_4,4,3F6KKYWMNCQ98CSTFVO3QOMIDN1DN5,climbing,8714.53,tangram,far,tangram-164.jpg,tangram-64.jpg,survey-text,55,501874,adult,NA,NA,8,climb
pilot2,adult_7,7,3SPJ033422SGNXWZWTJPA2F2MSRYJL,person walking,7545,tangram,isolated,B1.jpg,P1.jpg,survey-text,3,25449,adult,NA,NA,14,walk
pilot2,adult_7,7,3SPJ033422SGNXWZWTJPA2F2MSRYJL,woman skipping,16315,tangram,isolated,A2.jpg,tangram-99.jpg,survey-text,4,42280,adult,NA,NA,14,womanskip
pilot2,adult_7,7,3SPJ033422SGNXWZWTJPA2F2MSRYJL,boy running,6720,tangram,isolated,tangram-55.jpg,N1.jpg,survey-text,5,49521,adult,NA,NA,11,boyrun
pilot2,adult_7,7,3SPJ033422SGNXWZWTJPA2F2MSRYJL,man dancing,6165,tangram,isolated,tangram-90.jpg,tangram-81.jpg,survey-text,6,56201,adult,NA,NA,11,mandance
pilot2,adult_7,7,3SPJ033422SGNXWZWTJPA2F2MSRYJL,man running,6630,tangram,isolated,tangram-67.jpg,tangram-32.jpg,survey-text,7,63345,adult,NA,NA,11,manrun
pilot2,adult_7,7,3SPJ033422SGNXWZWTJPA2F2MSRYJL,man dancing,7181,tangram,isolated,tangram-48.jpg,tangram-187.jpg,survey-text,8,71033,adult,NA,NA,11,mandance
pilot2,adult_7,7,3SPJ033422SGNXWZWTJPA2F2MSRYJL,boy dancing,5832,tangram,isolated,tangram-164.jpg,tangram-183.jpg,survey-text,9,77376,adult,NA,NA,11,boydance
pilot2,adult_7,7,3SPJ033422SGNXWZWTJPA2F2MSRYJL,priest,5460,tangram,isolated,H1.jpg,I1.jpg,survey-text,10,83345,adult,NA,NA,6,priest
pilot2,adult_7,7,3SPJ033422SGNXWZWTJPA2F2MSRYJL,cheap car,12785,familiar,close,sedan.jpg,sportscar.jpg,survey-text,12,103041,adult,NA,NA,9,cheapcar
pilot2,adult_7,7,3SPJ033422SGNXWZWTJPA2F2MSRYJL,indoor table,6643,familiar,close,diningtable.jpg,picnictable.jpg,survey-text,13,110209,adult,NA,NA,12,indoortable
pilot2,adult_7,7,3SPJ033422SGNXWZWTJPA2F2MSRYJL,grizzly,6598,familiar,close,grizzlybear.jpg,polarbear.jpg,survey-text,14,117313,adult,NA,NA,7,grizzly
pilot2,adult_7,7,3SPJ033422SGNXWZWTJPA2F2MSRYJL,goldfish,5370,familiar,close,goldfish.jpg,swordfish.jpg,survey-text,15,123200,adult,NA,NA,8,goldfish
pilot2,adult_7,7,3SPJ033422SGNXWZWTJPA2F2MSRYJL,finch,17997,familiar,close,sparrow.jpg,eagle.jpg,survey-text,16,141713,adult,NA,NA,5,finch
pilot2,adult_7,7,3SPJ033422SGNXWZWTJPA2F2MSRYJL,polo,5491,familiar,close,poloshirt.jpg,hawaiishirt.jpg,survey-text,17,147713,adult,NA,NA,4,polo
pilot2,adult_7,7,3SPJ033422SGNXWZWTJPA2F2MSRYJL,chocolate,6851,familiar,close,mnms.jpg,gummybears.jpg,survey-text,18,155088,adult,NA,NA,9,chocolate
pilot2,adult_7,7,3SPJ033422SGNXWZWTJPA2F2MSRYJL,german,6149,familiar,close,germanshepherd.jpg,pug.jpg,survey-text,19,161745,adult,NA,NA,6,german
pilot2,adult_7,7,3SPJ033422SGNXWZWTJPA2F2MSRYJL,priest,12913,tangram,far,H1.jpg,tangram-8.jpg,survey-text,21,181649,adult,NA,NA,6,priest
pilot2,adult_7,7,3SPJ033422SGNXWZWTJPA2F2MSRYJL,kicking,5333,tangram,far,tangram-48.jpg,D1.jpg,survey-text,22,187488,adult,NA,NA,7,kick
pilot2,adult_7,7,3SPJ033422SGNXWZWTJPA2F2MSRYJL,legs apart,5820,tangram,far,tangram-90.jpg,tangram-120.jpg,survey-text,23,193817,adult,NA,NA,10,legapart
pilot2,adult_7,7,3SPJ033422SGNXWZWTJPA2F2MSRYJL,walking,7955,tangram,far,B1.jpg,tangram-4.jpg,survey-text,24,202281,adult,NA,NA,7,walk
pilot2,adult_7,7,3SPJ033422SGNXWZWTJPA2F2MSRYJL,skipping,6406,tangram,far,A2.jpg,C1.jpg,survey-text,25,209208,adult,NA,NA,8,skip
pilot2,adult_7,7,3SPJ033422SGNXWZWTJPA2F2MSRYJL,running,4410,tangram,far,tangram-67.jpg,G1.jpg,survey-text,26,214137,adult,NA,NA,7,run
pilot2,adult_7,7,3SPJ033422SGNXWZWTJPA2F2MSRYJL,high kick,6656,tangram,far,tangram-164.jpg,tangram-64.jpg,survey-text,27,221313,adult,NA,NA,9,highkick
pilot2,adult_7,7,3SPJ033422SGNXWZWTJPA2F2MSRYJL,runner,4255,tangram,far,tangram-55.jpg,tangram-143.jpg,survey-text,28,226088,adult,NA,NA,6,runner
pilot2,adult_7,7,3SPJ033422SGNXWZWTJPA2F2MSRYJL,goldfish,3879,familiar,far,goldfish.jpg,iguana.jpg,survey-text,30,232545,adult,NA,NA,8,goldfish
pilot2,adult_7,7,3SPJ033422SGNXWZWTJPA2F2MSRYJL,dog,5046,familiar,far,germanshepherd.jpg,cow.jpg,survey-text,31,238113,adult,NA,NA,3,dog
pilot2,adult_7,7,3SPJ033422SGNXWZWTJPA2F2MSRYJL,bear,2190,familiar,far,grizzlybear.jpg,lion.jpg,survey-text,32,240817,adult,NA,NA,4,bear
pilot2,adult_7,7,3SPJ033422SGNXWZWTJPA2F2MSRYJL,table,1849,familiar,far,diningtable.jpg,wardrobe.jpg,survey-text,33,243177,adult,NA,NA,5,table
pilot2,adult_7,7,3SPJ033422SGNXWZWTJPA2F2MSRYJL,shirt,1617,familiar,far,poloshirt.jpg,dress.jpg,survey-text,34,245304,adult,NA,NA,5,shirt
pilot2,adult_7,7,3SPJ033422SGNXWZWTJPA2F2MSRYJL,car,1577,familiar,far,sedan.jpg,firetruck.jpg,survey-text,35,247401,adult,NA,NA,3,car
pilot2,adult_7,7,3SPJ033422SGNXWZWTJPA2F2MSRYJL,candy,2850,familiar,far,mnms.jpg,pretzels.jpg,survey-text,36,250777,adult,NA,NA,5,candy
pilot2,adult_7,7,3SPJ033422SGNXWZWTJPA2F2MSRYJL,bird,2817,familiar,far,sparrow.jpg,squirrel.jpg,survey-text,37,254105,adult,NA,NA,4,bird
pilot2,adult_7,7,3SPJ033422SGNXWZWTJPA2F2MSRYJL,goldfish,3333,familiar,isolated,goldfish.jpg,swordfish.jpg,survey-text,39,261921,adult,NA,NA,8,goldfish
pilot2,adult_7,7,3SPJ033422SGNXWZWTJPA2F2MSRYJL,candy,1958,familiar,isolated,mnms.jpg,gummybears.jpg,survey-text,40,264385,adult,NA,NA,5,candy
pilot2,adult_7,7,3SPJ033422SGNXWZWTJPA2F2MSRYJL,car,1302,familiar,isolated,sedan.jpg,sportscar.jpg,survey-text,41,266209,adult,NA,NA,3,car
pilot2,adult_7,7,3SPJ033422SGNXWZWTJPA2F2MSRYJL,table,1794,familiar,isolated,diningtable.jpg,picnictable.jpg,survey-text,42,268521,adult,NA,NA,5,table
pilot2,adult_7,7,3SPJ033422SGNXWZWTJPA2F2MSRYJL,shirt,1695,familiar,isolated,poloshirt.jpg,hawaiishirt.jpg,survey-text,43,270721,adult,NA,NA,5,shirt
pilot2,adult_7,7,3SPJ033422SGNXWZWTJPA2F2MSRYJL,dog,1734,familiar,isolated,germanshepherd.jpg,pug.jpg,survey-text,44,272961,adult,NA,NA,3,dog
pilot2,adult_7,7,3SPJ033422SGNXWZWTJPA2F2MSRYJL,bird,1661,familiar,isolated,sparrow.jpg,eagle.jpg,survey-text,45,275129,adult,NA,NA,4,bird
pilot2,adult_7,7,3SPJ033422SGNXWZWTJPA2F2MSRYJL,bear,1395,familiar,isolated,grizzlybear.jpg,polarbear.jpg,survey-text,46,277041,adult,NA,NA,4,bear
pilot2,adult_7,7,3SPJ033422SGNXWZWTJPA2F2MSRYJL,hurdler,17838,tangram,close,tangram-48.jpg,tangram-187.jpg,survey-text,48,299785,adult,NA,NA,7,hurdler
pilot2,adult_7,7,3SPJ033422SGNXWZWTJPA2F2MSRYJL,sad man,6471,tangram,close,B1.jpg,P1.jpg,survey-text,49,306770,adult,NA,NA,7,sadman
pilot2,adult_7,7,3SPJ033422SGNXWZWTJPA2F2MSRYJL,back straight,8353,tangram,close,H1.jpg,I1.jpg,survey-text,50,315633,adult,NA,NA,13,backstraight
pilot2,adult_7,7,3SPJ033422SGNXWZWTJPA2F2MSRYJL,triangle body,12610,tangram,close,tangram-90.jpg,tangram-81.jpg,survey-text,51,328769,adult,NA,NA,13,trianglebody
pilot2,adult_7,7,3SPJ033422SGNXWZWTJPA2F2MSRYJL,flying kite,5771,tangram,close,A2.jpg,tangram-99.jpg,survey-text,52,335050,adult,NA,NA,11,flykite
pilot2,adult_7,7,3SPJ033422SGNXWZWTJPA2F2MSRYJL,sitting flat,15510,tangram,close,tangram-164.jpg,tangram-183.jpg,survey-text,53,351065,adult,NA,NA,12,sitflat
pilot2,adult_7,7,3SPJ033422SGNXWZWTJPA2F2MSRYJL,slower runner,13797,tangram,close,tangram-55.jpg,N1.jpg,survey-text,54,365385,adult,NA,NA,13,slowrunner
pilot2,adult_7,7,3SPJ033422SGNXWZWTJPA2F2MSRYJL,no arms,6637,tangram,close,tangram-67.jpg,tangram-32.jpg,survey-text,55,372546,adult,NA,NA,7,noarm
pilot2,adult_9,9,3OWEPKL08A1TR3RJOILHQWCMRC97NH,human,9884,tangram,far,tangram-67.jpg,G1.jpg,survey-text,3,26854,adult,NA,NA,5,human
pilot2,adult_9,9,3OWEPKL08A1TR3RJOILHQWCMRC97NH,teacher,7987,tangram,far,H1.jpg,tangram-8.jpg,survey-text,4,35360,adult,NA,NA,7,teacher
pilot2,adult_9,9,3OWEPKL08A1TR3RJOILHQWCMRC97NH,sport,3873,tangram,far,tangram-55.jpg,tangram-143.jpg,survey-text,5,39745,adult,NA,NA,5,sport
pilot2,adult_9,9,3OWEPKL08A1TR3RJOILHQWCMRC97NH,walk,3855,tangram,far,B1.jpg,tangram-4.jpg,survey-text,6,44112,adult,NA,NA,4,walk
pilot2,adult_9,9,3OWEPKL08A1TR3RJOILHQWCMRC97NH,sit,4065,tangram,far,tangram-164.jpg,tangram-64.jpg,survey-text,7,48697,adult,NA,NA,3,sit
pilot2,adult_9,9,3OWEPKL08A1TR3RJOILHQWCMRC97NH,praying,6315,tangram,far,A2.jpg,C1.jpg,survey-text,8,55528,adult,NA,NA,7,pray
pilot2,adult_9,9,3OWEPKL08A1TR3RJOILHQWCMRC97NH,kick,3014,tangram,far,tangram-48.jpg,D1.jpg,survey-text,9,59056,adult,NA,NA,4,kick
pilot2,adult_9,9,3OWEPKL08A1TR3RJOILHQWCMRC97NH,joy,5874,tangram,far,tangram-90.jpg,tangram-120.jpg,survey-text,10,65432,adult,NA,NA,3,joy
pilot2,adult_9,9,3OWEPKL08A1TR3RJOILHQWCMRC97NH,bear,5007,familiar,isolated,grizzlybear.jpg,polarbear.jpg,survey-text,12,74729,adult,NA,NA,4,bear
pilot2,adult_9,9,3OWEPKL08A1TR3RJOILHQWCMRC97NH,car,2396,familiar,isolated,sedan.jpg,sportscar.jpg,survey-text,13,77641,adult,NA,NA,3,car
pilot2,adult_9,9,3OWEPKL08A1TR3RJOILHQWCMRC97NH,table,2966,familiar,isolated,diningtable.jpg,picnictable.jpg,survey-text,14,81113,adult,NA,NA,5,table
pilot2,adult_9,9,3OWEPKL08A1TR3RJOILHQWCMRC97NH,candy,2656,familiar,isolated,mnms.jpg,gummybears.jpg,survey-text,15,84273,adult,NA,NA,5,candy
pilot2,adult_9,9,3OWEPKL08A1TR3RJOILHQWCMRC97NH,bird,6586,familiar,isolated,sparrow.jpg,eagle.jpg,survey-text,16,91368,adult,NA,NA,4,bird
pilot2,adult_9,9,3OWEPKL08A1TR3RJOILHQWCMRC97NH,fish,2909,familiar,isolated,goldfish.jpg,swordfish.jpg,survey-text,17,94800,adult,NA,NA,4,fish
pilot2,adult_9,9,3OWEPKL08A1TR3RJOILHQWCMRC97NH,shirt,4093,familiar,isolated,poloshirt.jpg,hawaiishirt.jpg,survey-text,18,99400,adult,NA,NA,5,shirt
pilot2,adult_9,9,3OWEPKL08A1TR3RJOILHQWCMRC97NH,dog,2798,familiar,isolated,germanshepherd.jpg,pug.jpg,survey-text,19,102713,adult,NA,NA,3,dog
pilot2,adult_9,9,3OWEPKL08A1TR3RJOILHQWCMRC97NH,bow,2477,tangram,close,H1.jpg,I1.jpg,survey-text,21,107880,adult,NA,NA,3,bow
pilot2,adult_9,9,3OWEPKL08A1TR3RJOILHQWCMRC97NH,hit,2927,tangram,close,A2.jpg,tangram-99.jpg,survey-text,22,111329,adult,NA,NA,3,hit
pilot2,adult_9,9,3OWEPKL08A1TR3RJOILHQWCMRC97NH,run,2013,tangram,close,tangram-55.jpg,N1.jpg,survey-text,23,113857,adult,NA,NA,3,run
pilot2,adult_9,9,3OWEPKL08A1TR3RJOILHQWCMRC97NH,give,4555,tangram,close,tangram-90.jpg,tangram-81.jpg,survey-text,24,118936,adult,NA,NA,4,give
pilot2,adult_9,9,3OWEPKL08A1TR3RJOILHQWCMRC97NH,forward,3676,tangram,close,B1.jpg,P1.jpg,survey-text,25,123128,adult,NA,NA,7,forward
pilot2,adult_9,9,3OWEPKL08A1TR3RJOILHQWCMRC97NH,slip,2608,tangram,close,tangram-164.jpg,tangram-183.jpg,survey-text,26,126256,adult,NA,NA,4,slip
pilot2,adult_9,9,3OWEPKL08A1TR3RJOILHQWCMRC97NH,kick,3593,tangram,close,tangram-48.jpg,tangram-187.jpg,survey-text,27,130377,adult,NA,NA,4,kick
pilot2,adult_9,9,3OWEPKL08A1TR3RJOILHQWCMRC97NH,run,2904,tangram,close,tangram-67.jpg,tangram-32.jpg,survey-text,28,133793,adult,NA,NA,3,run
pilot2,adult_9,9,3OWEPKL08A1TR3RJOILHQWCMRC97NH,run,2122,tangram,isolated,tangram-55.jpg,N1.jpg,survey-text,30,137984,adult,NA,NA,3,run
pilot2,adult_9,9,3OWEPKL08A1TR3RJOILHQWCMRC97NH,toss,2634,tangram,isolated,A2.jpg,tangram-99.jpg,survey-text,31,141137,adult,NA,NA,4,toss
pilot2,adult_9,9,3OWEPKL08A1TR3RJOILHQWCMRC97NH,sit,3783,tangram,isolated,tangram-164.jpg,tangram-183.jpg,survey-text,32,145432,adult,NA,NA,3,sit
pilot2,adult_9,9,3OWEPKL08A1TR3RJOILHQWCMRC97NH,bow,3177,tangram,isolated,H1.jpg,I1.jpg,survey-text,33,149128,adult,NA,NA,3,bow
pilot2,adult_9,9,3OWEPKL08A1TR3RJOILHQWCMRC97NH,run,1787,tangram,isolated,tangram-67.jpg,tangram-32.jpg,survey-text,34,151440,adult,NA,NA,3,run
pilot2,adult_9,9,3OWEPKL08A1TR3RJOILHQWCMRC97NH,joy,1999,tangram,isolated,tangram-90.jpg,tangram-81.jpg,survey-text,35,153961,adult,NA,NA,3,joy
pilot2,adult_9,9,3OWEPKL08A1TR3RJOILHQWCMRC97NH,kick,2533,tangram,isolated,tangram-48.jpg,tangram-187.jpg,survey-text,36,157016,adult,NA,NA,4,kick
pilot2,adult_9,9,3OWEPKL08A1TR3RJOILHQWCMRC97NH,forward,5096,tangram,isolated,B1.jpg,P1.jpg,survey-text,37,162625,adult,NA,NA,7,forward
pilot2,adult_9,9,3OWEPKL08A1TR3RJOILHQWCMRC97NH,wood,4577,familiar,close,diningtable.jpg,picnictable.jpg,survey-text,39,169840,adult,NA,NA,4,wood
pilot2,adult_9,9,3OWEPKL08A1TR3RJOILHQWCMRC97NH,fly,3629,familiar,close,sparrow.jpg,eagle.jpg,survey-text,40,173984,adult,NA,NA,3,fly
pilot2,adult_9,9,3OWEPKL08A1TR3RJOILHQWCMRC97NH,car,2195,familiar,close,sedan.jpg,sportscar.jpg,survey-text,41,176688,adult,NA,NA,3,car
pilot2,adult_9,9,3OWEPKL08A1TR3RJOILHQWCMRC97NH,nice,3252,familiar,close,germanshepherd.jpg,pug.jpg,survey-text,42,180457,adult,NA,NA,4,nice
pilot2,adult_9,9,3OWEPKL08A1TR3RJOILHQWCMRC97NH,candy,2559,familiar,close,mnms.jpg,gummybears.jpg,survey-text,43,183528,adult,NA,NA,5,candy
pilot2,adult_9,9,3OWEPKL08A1TR3RJOILHQWCMRC97NH,fish,5052,familiar,close,goldfish.jpg,swordfish.jpg,survey-text,44,189096,adult,NA,NA,4,fish
pilot2,adult_9,9,3OWEPKL08A1TR3RJOILHQWCMRC97NH,shirt,2546,familiar,close,poloshirt.jpg,hawaiishirt.jpg,survey-text,45,192145,adult,NA,NA,5,shirt
pilot2,adult_9,9,3OWEPKL08A1TR3RJOILHQWCMRC97NH,bear,2881,familiar,close,grizzlybear.jpg,polarbear.jpg,survey-text,46,195536,adult,NA,NA,4,bear
pilot2,adult_9,9,3OWEPKL08A1TR3RJOILHQWCMRC97NH,animal,4226,familiar,far,germanshepherd.jpg,cow.jpg,survey-text,48,201681,adult,NA,NA,6,animal
pilot2,adult_9,9,3OWEPKL08A1TR3RJOILHQWCMRC97NH,animal,3961,familiar,far,goldfish.jpg,iguana.jpg,survey-text,49,206161,adult,NA,NA,6,animal
pilot2,adult_9,9,3OWEPKL08A1TR3RJOILHQWCMRC97NH,wood,5605,familiar,far,diningtable.jpg,wardrobe.jpg,survey-text,50,212289,adult,NA,NA,4,wood
pilot2,adult_9,9,3OWEPKL08A1TR3RJOILHQWCMRC97NH,car,2716,familiar,far,sedan.jpg,firetruck.jpg,survey-text,51,215512,adult,NA,NA,3,car
pilot2,adult_9,9,3OWEPKL08A1TR3RJOILHQWCMRC97NH,pet,2707,familiar,far,sparrow.jpg,squirrel.jpg,survey-text,52,218737,adult,NA,NA,3,pet
pilot2,adult_9,9,3OWEPKL08A1TR3RJOILHQWCMRC97NH,animal,3641,familiar,far,grizzlybear.jpg,lion.jpg,survey-text,53,222896,adult,NA,NA,6,animal
pilot2,adult_9,9,3OWEPKL08A1TR3RJOILHQWCMRC97NH,snack,5018,familiar,far,mnms.jpg,pretzels.jpg,survey-text,54,228433,adult,NA,NA,5,snack
pilot2,adult_9,9,3OWEPKL08A1TR3RJOILHQWCMRC97NH,wear,3144,familiar,far,poloshirt.jpg,dress.jpg,survey-text,55,232089,adult,NA,NA,4,wear
pilot2,adult_10,10,3HUTX6F6VVC4NNUPJL4Z9UVJ66GO2L,looks like metallic structure.,78409.92,tangram,isolated,H1.jpg,I1.jpg,survey-text,3,136663,adult,NA,NA,30,metallic
pilot2,adult_10,10,3HUTX6F6VVC4NNUPJL4Z9UVJ66GO2L,looks like a human structure on the run.,24602.72,tangram,isolated,tangram-48.jpg,tangram-187.jpg,survey-text,4,161778,adult,NA,NA,40,humanrun
pilot2,adult_10,10,3HUTX6F6VVC4NNUPJL4Z9UVJ66GO2L,looks like a female body structure walking.,24633.77,tangram,isolated,tangram-90.jpg,tangram-81.jpg,survey-text,5,186930,adult,NA,NA,43,femalewalk
pilot2,adult_10,10,3HUTX6F6VVC4NNUPJL4Z9UVJ66GO2L,this structure looks like a human sitting with one leg up.,46635.355,tangram,isolated,tangram-164.jpg,tangram-183.jpg,survey-text,6,234078,adult,NA,NA,58,humansitonelegup
pilot2,adult_10,10,3HUTX6F6VVC4NNUPJL4Z9UVJ66GO2L,this structure looks like a kid running.,56689.54,tangram,isolated,tangram-55.jpg,N1.jpg,survey-text,7,291284,adult,NA,NA,40,kidrun
pilot2,adult_10,10,3HUTX6F6VVC4NNUPJL4Z9UVJ66GO2L,this structure looks like a female body figure on a run.,48723.075,tangram,isolated,tangram-67.jpg,tangram-32.jpg,survey-text,8,340522,adult,NA,NA,56,femalerun
pilot2,adult_10,10,3HUTX6F6VVC4NNUPJL4Z9UVJ66GO2L,this structure looks like a human body walking in a depressed state.,43484.46,tangram,isolated,B1.jpg,P1.jpg,survey-text,9,384519,adult,NA,NA,68,depresswalk
pilot2,adult_10,10,3HUTX6F6VVC4NNUPJL4Z9UVJ66GO2L,looks like a female body structure walking.,57040.83,tangram,isolated,A2.jpg,tangram-99.jpg,survey-text,10,442065,adult,NA,NA,43,femalewalk
pilot2,adult_10,10,3HUTX6F6VVC4NNUPJL4Z9UVJ66GO2L,looks like a human walking in a depressed state.,60891.405,tangram,close,B1.jpg,P1.jpg,survey-text,12,540276,adult,NA,NA,48,depresswalk
pilot2,adult_10,10,3HUTX6F6VVC4NNUPJL4Z9UVJ66GO2L,the structure looks like a man sitting upright with a leg up.,63892.87,tangram,close,tangram-164.jpg,tangram-183.jpg,survey-text,13,604678,adult,NA,NA,61,mansituprightlegup
pilot2,adult_10,10,3HUTX6F6VVC4NNUPJL4Z9UVJ66GO2L,the structure looks like a female body running  gently.,121524.455,tangram,close,tangram-90.jpg,tangram-81.jpg,survey-text,14,726719,adult,NA,NA,55,femalerungently
pilot2,adult_10,10,3HUTX6F6VVC4NNUPJL4Z9UVJ66GO2L,this structure resembles a man walking majestically.,59668.005,tangram,close,tangram-48.jpg,tangram-187.jpg,survey-text,15,786895,adult,NA,NA,52,manwalkmajestically
pilot2,adult_10,10,3HUTX6F6VVC4NNUPJL4Z9UVJ66GO2L,this structure looks like a female body running.,212513.5,tangram,close,tangram-67.jpg,tangram-32.jpg,survey-text,16,999927,adult,NA,NA,48,femalerun
pilot2,adult_10,10,3HUTX6F6VVC4NNUPJL4Z9UVJ66GO2L,this structure looks like a man sitting and holding something in his stretched out hands.,61493.895,tangram,close,H1.jpg,I1.jpg,survey-text,17,1061927,adult,NA,NA,89,mansitholdinstretchouthand
pilot2,adult_10,10,3HUTX6F6VVC4NNUPJL4Z9UVJ66GO2L,this image here looks like a human structure running aggressively.,52192.055,tangram,close,tangram-55.jpg,N1.jpg,survey-text,18,1114638,adult,NA,NA,66,runaggressively
pilot2,adult_10,10,3HUTX6F6VVC4NNUPJL4Z9UVJ66GO2L,this image shows a female body structure walking towards the left side.,37166.375,tangram,close,A2.jpg,tangram-99.jpg,survey-text,19,1152314,adult,NA,NA,71,femalebodystructurewalktowardstheleft
pilot2,adult_10,10,3HUTX6F6VVC4NNUPJL4Z9UVJ66GO2L,this image is a little bird that chirps regularly anywhere it perches.,68591.665,familiar,close,sparrow.jpg,eagle.jpg,survey-text,21,1232172,adult,NA,NA,70,littlebirdthatchirpregularlyanywhereitperch
pilot2,adult_10,10,3HUTX6F6VVC4NNUPJL4Z9UVJ66GO2L,this image is a blue sedan four doors type of car.,29239.495,familiar,close,sedan.jpg,sportscar.jpg,survey-text,22,1261925,adult,NA,NA,50,bluesedanfourdoor
pilot2,adult_10,10,3HUTX6F6VVC4NNUPJL4Z9UVJ66GO2L,this is a rectangular high legged table.,40987.365,familiar,close,diningtable.jpg,picnictable.jpg,survey-text,23,1303455,adult,NA,NA,40,rectangularhighlegtable.
pilot2,adult_10,10,3HUTX6F6VVC4NNUPJL4Z9UVJ66GO2L,this image is a brown colored walking bear.,36388.095,familiar,close,grizzlybear.jpg,polarbear.jpg,survey-text,24,1340353,adult,NA,NA,43,brownwalkbear
pilot2,adult_10,10,3HUTX6F6VVC4NNUPJL4Z9UVJ66GO2L,this image is a picture of a german shepherded dog in a position of about to sit.,87409.025,familiar,close,germanshepherd.jpg,pug.jpg,survey-text,25,1428273,adult,NA,NA,81,germanshepherdsit
pilot2,adult_10,10,3HUTX6F6VVC4NNUPJL4Z9UVJ66GO2L,this picture shows m&ma candies.,59541.055,familiar,close,mnms.jpg,gummybears.jpg,survey-text,26,1488334,adult,NA,NA,32,mnmscandy
pilot2,adult_10,10,3HUTX6F6VVC4NNUPJL4Z9UVJ66GO2L,this is a picture of a gold fish.,11401.265,familiar,close,goldfish.jpg,swordfish.jpg,survey-text,27,1500246,adult,NA,NA,33,goldfish
pilot2,adult_10,10,3HUTX6F6VVC4NNUPJL4Z9UVJ66GO2L,this is a plane blue polo t-shirt.,33531.66,familiar,close,poloshirt.jpg,hawaiishirt.jpg,survey-text,28,1534284,adult,NA,NA,34,plainbluepolotshirt
pilot2,adult_10,10,3HUTX6F6VVC4NNUPJL4Z9UVJ66GO2L,this is a bird,20300.845,familiar,far,sparrow.jpg,squirrel.jpg,survey-text,30,1565391,adult,NA,NA,14,bird
pilot2,adult_10,10,3HUTX6F6VVC4NNUPJL4Z9UVJ66GO2L,a gold fish.,9037.99,familiar,far,goldfish.jpg,iguana.jpg,survey-text,31,1574937,adult,NA,NA,12,goldfish.
pilot2,adult_10,10,3HUTX6F6VVC4NNUPJL4Z9UVJ66GO2L,a blue car,17068.355,familiar,far,sedan.jpg,firetruck.jpg,survey-text,32,1592516,adult,NA,NA,10,bluecar
pilot2,adult_10,10,3HUTX6F6VVC4NNUPJL4Z9UVJ66GO2L,a bear.,6433.455,familiar,far,grizzlybear.jpg,lion.jpg,survey-text,33,1599457,adult,NA,NA,7,bear
pilot2,adult_10,10,3HUTX6F6VVC4NNUPJL4Z9UVJ66GO2L,m&m candies,11499.28,familiar,far,mnms.jpg,pretzels.jpg,survey-text,34,1611472,adult,NA,NA,11,mnmscandy
pilot2,adult_10,10,3HUTX6F6VVC4NNUPJL4Z9UVJ66GO2L,a german shepherd dog,23442.67,familiar,far,germanshepherd.jpg,cow.jpg,survey-text,35,1635430,adult,NA,NA,21,germanshepherddog
pilot2,adult_10,10,3HUTX6F6VVC4NNUPJL4Z9UVJ66GO2L,a plane blue t-shirt,23790.21,familiar,far,poloshirt.jpg,dress.jpg,survey-text,36,1659734,adult,NA,NA,20,plainbluetshirt
pilot2,adult_10,10,3HUTX6F6VVC4NNUPJL4Z9UVJ66GO2L,a table.,9520.925,familiar,far,diningtable.jpg,wardrobe.jpg,survey-text,37,1669763,adult,NA,NA,8,table
pilot2,adult_10,10,3HUTX6F6VVC4NNUPJL4Z9UVJ66GO2L,m&m candies,11296.21,familiar,isolated,mnms.jpg,gummybears.jpg,survey-text,39,1687389,adult,NA,NA,11,mnmscandy
pilot2,adult_10,10,3HUTX6F6VVC4NNUPJL4Z9UVJ66GO2L,bear,12333.395,familiar,isolated,grizzlybear.jpg,polarbear.jpg,survey-text,40,1700231,adult,NA,NA,4,bear
pilot2,adult_10,10,3HUTX6F6VVC4NNUPJL4Z9UVJ66GO2L,car,8277.975,familiar,isolated,sedan.jpg,sportscar.jpg,survey-text,41,1709026,adult,NA,NA,3,car
pilot2,adult_10,10,3HUTX6F6VVC4NNUPJL4Z9UVJ66GO2L,dog,6577.965,familiar,isolated,germanshepherd.jpg,pug.jpg,survey-text,42,1716113,adult,NA,NA,3,dog
pilot2,adult_10,10,3HUTX6F6VVC4NNUPJL4Z9UVJ66GO2L,a blue shirt,18209.535,familiar,isolated,poloshirt.jpg,hawaiishirt.jpg,survey-text,43,1734828,adult,NA,NA,12,blueshirt
pilot2,adult_10,10,3HUTX6F6VVC4NNUPJL4Z9UVJ66GO2L,a bird,4560.825,familiar,isolated,sparrow.jpg,eagle.jpg,survey-text,44,1739903,adult,NA,NA,6,bird
pilot2,adult_10,10,3HUTX6F6VVC4NNUPJL4Z9UVJ66GO2L,a gold fish,6060.765,familiar,isolated,goldfish.jpg,swordfish.jpg,survey-text,45,1746472,adult,NA,NA,11,goldfish
pilot2,adult_10,10,3HUTX6F6VVC4NNUPJL4Z9UVJ66GO2L,a table,3934.07,familiar,isolated,diningtable.jpg,picnictable.jpg,survey-text,46,1750923,adult,NA,NA,7,table
pilot2,adult_10,10,3HUTX6F6VVC4NNUPJL4Z9UVJ66GO2L,a human structure in a sitting position holding something.,46145.32,tangram,far,H1.jpg,tangram-8.jpg,survey-text,48,1807229,adult,NA,NA,58,sithold
pilot2,adult_10,10,3HUTX6F6VVC4NNUPJL4Z9UVJ66GO2L,a human structure walking towards the left,20052.21,tangram,far,tangram-48.jpg,D1.jpg,survey-text,49,1827792,adult,NA,NA,42,humanwalkleft
pilot2,adult_10,10,3HUTX6F6VVC4NNUPJL4Z9UVJ66GO2L,a female body structure walking towards the left side,33795.52,tangram,far,A2.jpg,C1.jpg,survey-text,50,1862100,adult,NA,NA,53,femalewalkleft
pilot2,adult_10,10,3HUTX6F6VVC4NNUPJL4Z9UVJ66GO2L,a male body structure sitting with one leg up,34468.425,tangram,far,tangram-164.jpg,tangram-64.jpg,survey-text,51,1897081,adult,NA,NA,45,malesitonelegup
pilot2,adult_10,10,3HUTX6F6VVC4NNUPJL4Z9UVJ66GO2L,a female body structure running,19652.115,tangram,far,tangram-67.jpg,G1.jpg,survey-text,52,1917251,adult,NA,NA,31,run
pilot2,adult_10,10,3HUTX6F6VVC4NNUPJL4Z9UVJ66GO2L,an unidentified human body structure running,26189.35,tangram,far,tangram-55.jpg,tangram-143.jpg,survey-text,53,1943951,adult,NA,NA,44,run
pilot2,adult_10,10,3HUTX6F6VVC4NNUPJL4Z9UVJ66GO2L,a female body structure walking,24385.31,tangram,far,B1.jpg,tangram-4.jpg,survey-text,54,1968850,adult,NA,NA,31,walk
pilot2,adult_10,10,3HUTX6F6VVC4NNUPJL4Z9UVJ66GO2L,a female body structure walking,16357.535,tangram,far,tangram-90.jpg,tangram-120.jpg,survey-text,55,1985730,adult,NA,NA,31,walk
pilot2,adult_11,11,35GMH2SV3F6WI365C5Z0BV48396EOD,brown bear,19783.75,familiar,isolated,grizzlybear.jpg,polarbear.jpg,survey-text,3,54639,adult,NA,NA,10,brownbear
pilot2,adult_11,11,35GMH2SV3F6WI365C5Z0BV48396EOD,blue shirt,14624.135,familiar,isolated,poloshirt.jpg,hawaiishirt.jpg,survey-text,4,69767,adult,NA,NA,10,blueshirt
pilot2,adult_11,11,35GMH2SV3F6WI365C5Z0BV48396EOD,goldfish,11350.7,familiar,isolated,goldfish.jpg,swordfish.jpg,survey-text,5,81623,adult,NA,NA,8,goldfish
pilot2,adult_11,11,35GMH2SV3F6WI365C5Z0BV48396EOD,long table,6674.185,familiar,isolated,diningtable.jpg,picnictable.jpg,survey-text,6,88799,adult,NA,NA,10,longtable
pilot2,adult_11,11,35GMH2SV3F6WI365C5Z0BV48396EOD,bird,18978.14,familiar,isolated,sparrow.jpg,eagle.jpg,survey-text,7,108280,adult,NA,NA,4,bird
pilot2,adult_11,11,35GMH2SV3F6WI365C5Z0BV48396EOD,blue car,10224.905,familiar,isolated,sedan.jpg,sportscar.jpg,survey-text,8,119007,adult,NA,NA,8,bluecar
pilot2,adult_11,11,35GMH2SV3F6WI365C5Z0BV48396EOD,chocolate candy,32817.25,familiar,isolated,mnms.jpg,gummybears.jpg,survey-text,9,152327,adult,NA,NA,15,chocolatecandy
pilot2,adult_11,11,35GMH2SV3F6WI365C5Z0BV48396EOD,german shepard,10704.195,familiar,isolated,germanshepherd.jpg,pug.jpg,survey-text,10,163535,adult,NA,NA,14,germanshepard
pilot2,adult_11,11,35GMH2SV3F6WI365C5Z0BV48396EOD,blue car,7465.275,familiar,close,sedan.jpg,sportscar.jpg,survey-text,12,182791,adult,NA,NA,8,bluecar
pilot2,adult_11,11,35GMH2SV3F6WI365C5Z0BV48396EOD,long table,9913.035,familiar,close,diningtable.jpg,picnictable.jpg,survey-text,13,193207,adult,NA,NA,10,longtable
pilot2,adult_11,11,35GMH2SV3F6WI365C5Z0BV48396EOD,small bird,15399.37,familiar,close,sparrow.jpg,eagle.jpg,survey-text,14,209111,adult,NA,NA,10,smallbird
pilot2,adult_11,11,35GMH2SV3F6WI365C5Z0BV48396EOD,chocolate candy,5729.625,familiar,close,mnms.jpg,gummybears.jpg,survey-text,15,215343,adult,NA,NA,15,chocolatecandy
pilot2,adult_11,11,35GMH2SV3F6WI365C5Z0BV48396EOD,plain shirt,7864.38,familiar,close,poloshirt.jpg,hawaiishirt.jpg,survey-text,16,223710,adult,NA,NA,11,plainshirt
pilot2,adult_11,11,35GMH2SV3F6WI365C5Z0BV48396EOD,german shepard,3694.225,familiar,close,germanshepherd.jpg,pug.jpg,survey-text,17,227911,adult,NA,NA,14,germanshepard
pilot2,adult_11,11,35GMH2SV3F6WI365C5Z0BV48396EOD,brown bear,4449.32,familiar,close,grizzlybear.jpg,polarbear.jpg,survey-text,18,232863,adult,NA,NA,10,brownbear
pilot2,adult_11,11,35GMH2SV3F6WI365C5Z0BV48396EOD,goldfish,2920.915,familiar,close,goldfish.jpg,swordfish.jpg,survey-text,19,236287,adult,NA,NA,8,goldfish
pilot2,adult_11,11,35GMH2SV3F6WI365C5Z0BV48396EOD,running,7510.5,tangram,close,tangram-67.jpg,tangram-32.jpg,survey-text,21,249414,adult,NA,NA,7,run
pilot2,adult_11,11,35GMH2SV3F6WI365C5Z0BV48396EOD,fat kick,6166.695,tangram,close,tangram-48.jpg,tangram-187.jpg,survey-text,22,256087,adult,NA,NA,8,fatkick
pilot2,adult_11,11,35GMH2SV3F6WI365C5Z0BV48396EOD,not fall,24420.795,tangram,close,tangram-164.jpg,tangram-183.jpg,survey-text,23,281015,adult,NA,NA,8,notfall
pilot2,adult_11,11,35GMH2SV3F6WI365C5Z0BV48396EOD,no bowl,12678.84,tangram,close,H1.jpg,I1.jpg,survey-text,24,294199,adult,NA,NA,7,nobowl
pilot2,adult_11,11,35GMH2SV3F6WI365C5Z0BV48396EOD,big triangle,37736.13,tangram,close,tangram-90.jpg,tangram-81.jpg,survey-text,25,332439,adult,NA,NA,12,bigtriangle
pilot2,adult_11,11,35GMH2SV3F6WI365C5Z0BV48396EOD,sad man,36634.205,tangram,close,B1.jpg,P1.jpg,survey-text,26,369575,adult,NA,NA,7,sadman
pilot2,adult_11,11,35GMH2SV3F6WI365C5Z0BV48396EOD,arms back,26785.11,tangram,close,tangram-55.jpg,N1.jpg,survey-text,27,396863,adult,NA,NA,9,armback
pilot2,adult_11,11,35GMH2SV3F6WI365C5Z0BV48396EOD,ponytail,10124.305,tangram,close,A2.jpg,tangram-99.jpg,survey-text,28,407494,adult,NA,NA,8,ponytail
pilot2,adult_11,11,35GMH2SV3F6WI365C5Z0BV48396EOD,bear,15233.77,familiar,far,grizzlybear.jpg,lion.jpg,survey-text,30,428471,adult,NA,NA,4,bear
pilot2,adult_11,11,35GMH2SV3F6WI365C5Z0BV48396EOD,shirt,3303.535,familiar,far,poloshirt.jpg,dress.jpg,survey-text,31,432279,adult,NA,NA,5,shirt
pilot2,adult_11,11,35GMH2SV3F6WI365C5Z0BV48396EOD,bird,2542.9,familiar,far,sparrow.jpg,squirrel.jpg,survey-text,32,435327,adult,NA,NA,4,bird
pilot2,adult_11,11,35GMH2SV3F6WI365C5Z0BV48396EOD,chocolate,6862.83,familiar,far,mnms.jpg,pretzels.jpg,survey-text,33,442695,adult,NA,NA,9,chocolate
pilot2,adult_11,11,35GMH2SV3F6WI365C5Z0BV48396EOD,car,1912.105,familiar,far,sedan.jpg,firetruck.jpg,survey-text,34,445110,adult,NA,NA,3,car
pilot2,adult_11,11,35GMH2SV3F6WI365C5Z0BV48396EOD,dog,1960.995,familiar,far,germanshepherd.jpg,cow.jpg,survey-text,35,447575,adult,NA,NA,3,dog
pilot2,adult_11,11,35GMH2SV3F6WI365C5Z0BV48396EOD,fish,1977.345,familiar,far,goldfish.jpg,iguana.jpg,survey-text,36,450055,adult,NA,NA,4,fish
pilot2,adult_11,11,35GMH2SV3F6WI365C5Z0BV48396EOD,table,2928.695,familiar,far,diningtable.jpg,wardrobe.jpg,survey-text,37,453487,adult,NA,NA,5,table
pilot2,adult_11,11,35GMH2SV3F6WI365C5Z0BV48396EOD,arms wide,10251.01,tangram,isolated,tangram-90.jpg,tangram-81.jpg,survey-text,39,469455,adult,NA,NA,9,armwide
pilot2,adult_11,11,35GMH2SV3F6WI365C5Z0BV48396EOD,running,6598.385,tangram,isolated,tangram-67.jpg,tangram-32.jpg,survey-text,40,476558,adult,NA,NA,7,run
pilot2,adult_11,11,35GMH2SV3F6WI365C5Z0BV48396EOD,kicking,3609.51,tangram,isolated,tangram-48.jpg,tangram-187.jpg,survey-text,41,480671,adult,NA,NA,7,kick
pilot2,adult_11,11,35GMH2SV3F6WI365C5Z0BV48396EOD,depressed,5310.61,tangram,isolated,B1.jpg,P1.jpg,survey-text,42,486487,adult,NA,NA,9,depress
pilot2,adult_11,11,35GMH2SV3F6WI365C5Z0BV48396EOD,ponytail woman,14703.63,tangram,isolated,A2.jpg,tangram-99.jpg,survey-text,43,501695,adult,NA,NA,14,ponytailwoman
pilot2,adult_11,11,35GMH2SV3F6WI365C5Z0BV48396EOD,naruto run,9761.13,tangram,isolated,tangram-55.jpg,N1.jpg,survey-text,44,511959,adult,NA,NA,10,narutorun
pilot2,adult_11,11,35GMH2SV3F6WI365C5Z0BV48396EOD,squat kick,11657.79,tangram,isolated,tangram-164.jpg,tangram-183.jpg,survey-text,45,524119,adult,NA,NA,10,squatkick
pilot2,adult_11,11,35GMH2SV3F6WI365C5Z0BV48396EOD,palms out,9410.16,tangram,isolated,H1.jpg,I1.jpg,survey-text,46,534032,adult,NA,NA,9,palmout
pilot2,adult_11,11,35GMH2SV3F6WI365C5Z0BV48396EOD,woman standing,12026.065,tangram,far,A2.jpg,C1.jpg,survey-text,48,551902,adult,NA,NA,14,womanstand
pilot2,adult_11,11,35GMH2SV3F6WI365C5Z0BV48396EOD,man begging,7576.83,tangram,far,H1.jpg,tangram-8.jpg,survey-text,49,559982,adult,NA,NA,11,manbeg
pilot2,adult_11,11,35GMH2SV3F6WI365C5Z0BV48396EOD,running,6029.03,tangram,far,tangram-67.jpg,G1.jpg,survey-text,50,566518,adult,NA,NA,7,run
pilot2,adult_11,11,35GMH2SV3F6WI365C5Z0BV48396EOD,arms spread,4406.58,tangram,far,tangram-90.jpg,tangram-120.jpg,survey-text,51,571430,adult,NA,NA,11,armspread
pilot2,adult_11,11,35GMH2SV3F6WI365C5Z0BV48396EOD,kicking,3488.59,tangram,far,tangram-48.jpg,D1.jpg,survey-text,52,575422,adult,NA,NA,7,kick
pilot2,adult_11,11,35GMH2SV3F6WI365C5Z0BV48396EOD,depressed,2524.78,tangram,far,B1.jpg,tangram-4.jpg,survey-text,53,578454,adult,NA,NA,9,depress
pilot2,adult_11,11,35GMH2SV3F6WI365C5Z0BV48396EOD,running,8010.16,tangram,far,tangram-55.jpg,tangram-143.jpg,survey-text,54,586966,adult,NA,NA,7,run
pilot2,adult_11,11,35GMH2SV3F6WI365C5Z0BV48396EOD,squat,4886.545,tangram,far,tangram-164.jpg,tangram-64.jpg,survey-text,55,592358,adult,NA,NA,5,squat
pilot2,adult_12,12,3AZHRG4CU5985OYPL0GT234TEMO03G,bird,7240,familiar,far,sparrow.jpg,squirrel.jpg,survey-text,3,34470,adult,NA,NA,4,bird
pilot2,adult_12,12,3AZHRG4CU5985OYPL0GT234TEMO03G,bear,5093,familiar,far,grizzlybear.jpg,lion.jpg,survey-text,4,40082,adult,NA,NA,4,bear
pilot2,adult_12,12,3AZHRG4CU5985OYPL0GT234TEMO03G,car,2868,familiar,far,sedan.jpg,firetruck.jpg,survey-text,5,43456,adult,NA,NA,3,car
pilot2,adult_12,12,3AZHRG4CU5985OYPL0GT234TEMO03G,table,5949,familiar,far,diningtable.jpg,wardrobe.jpg,survey-text,6,49913,adult,NA,NA,5,table
pilot2,adult_12,12,3AZHRG4CU5985OYPL0GT234TEMO03G,dog,2813,familiar,far,germanshepherd.jpg,cow.jpg,survey-text,7,53232,adult,NA,NA,3,dog
pilot2,adult_12,12,3AZHRG4CU5985OYPL0GT234TEMO03G,shirt,4511,familiar,far,poloshirt.jpg,dress.jpg,survey-text,8,58249,adult,NA,NA,5,shirt
pilot2,adult_12,12,3AZHRG4CU5985OYPL0GT234TEMO03G,fish,3570,familiar,far,goldfish.jpg,iguana.jpg,survey-text,9,62338,adult,NA,NA,4,fish
pilot2,adult_12,12,3AZHRG4CU5985OYPL0GT234TEMO03G,mnms,4508,familiar,far,mnms.jpg,pretzels.jpg,survey-text,10,67365,adult,NA,NA,4,mnms
pilot2,adult_12,12,3AZHRG4CU5985OYPL0GT234TEMO03G,plain tshirt,9205,familiar,close,poloshirt.jpg,hawaiishirt.jpg,survey-text,12,81158,adult,NA,NA,12,plaintshirt
pilot2,adult_12,12,3AZHRG4CU5985OYPL0GT234TEMO03G,golden fish,5812,familiar,close,goldfish.jpg,swordfish.jpg,survey-text,13,87483,adult,NA,NA,11,goldenfish
pilot2,adult_12,12,3AZHRG4CU5985OYPL0GT234TEMO03G,brown bear,5921,familiar,close,grizzlybear.jpg,polarbear.jpg,survey-text,14,93938,adult,NA,NA,10,brownbear
pilot2,adult_12,12,3AZHRG4CU5985OYPL0GT234TEMO03G,table,3654,familiar,close,diningtable.jpg,picnictable.jpg,survey-text,15,98106,adult,NA,NA,5,table
pilot2,adult_12,12,3AZHRG4CU5985OYPL0GT234TEMO03G,german shephard,6717,familiar,close,germanshepherd.jpg,pug.jpg,survey-text,16,105329,adult,NA,NA,15,germanshephard
pilot2,adult_12,12,3AZHRG4CU5985OYPL0GT234TEMO03G,bird,5686,familiar,close,sparrow.jpg,eagle.jpg,survey-text,17,111632,adult,NA,NA,4,bird
pilot2,adult_12,12,3AZHRG4CU5985OYPL0GT234TEMO03G,car,4924,familiar,close,sedan.jpg,sportscar.jpg,survey-text,18,117059,adult,NA,NA,3,car
pilot2,adult_12,12,3AZHRG4CU5985OYPL0GT234TEMO03G,mnms,3596,familiar,close,mnms.jpg,gummybears.jpg,survey-text,19,121163,adult,NA,NA,4,mnms
pilot2,adult_12,12,3AZHRG4CU5985OYPL0GT234TEMO03G,running,7489,tangram,close,tangram-90.jpg,tangram-81.jpg,survey-text,21,133532,adult,NA,NA,7,run
pilot2,adult_12,12,3AZHRG4CU5985OYPL0GT234TEMO03G,holding something,6165,tangram,close,H1.jpg,I1.jpg,survey-text,22,140214,adult,NA,NA,17,hold
pilot2,adult_12,12,3AZHRG4CU5985OYPL0GT234TEMO03G,running fast,4387,tangram,close,tangram-55.jpg,N1.jpg,survey-text,23,145108,adult,NA,NA,12,runfast
pilot2,adult_12,12,3AZHRG4CU5985OYPL0GT234TEMO03G,walking,5598,tangram,close,A2.jpg,tangram-99.jpg,survey-text,24,151225,adult,NA,NA,7,walk
pilot2,adult_12,12,3AZHRG4CU5985OYPL0GT234TEMO03G,falling,3013,tangram,close,tangram-164.jpg,tangram-183.jpg,survey-text,25,154744,adult,NA,NA,7,fall
pilot2,adult_12,12,3AZHRG4CU5985OYPL0GT234TEMO03G,looking down,6128,tangram,close,B1.jpg,P1.jpg,survey-text,26,161377,adult,NA,NA,12,lookdown
pilot2,adult_12,12,3AZHRG4CU5985OYPL0GT234TEMO03G,enjoying,3658,tangram,close,tangram-48.jpg,tangram-187.jpg,survey-text,27,165550,adult,NA,NA,8,enjoy
pilot2,adult_12,12,3AZHRG4CU5985OYPL0GT234TEMO03G,running,3883,tangram,close,tangram-67.jpg,tangram-32.jpg,survey-text,28,169940,adult,NA,NA,7,run
pilot2,adult_12,12,3AZHRG4CU5985OYPL0GT234TEMO03G,holding,4019,tangram,far,H1.jpg,tangram-8.jpg,survey-text,30,178225,adult,NA,NA,7,hold
pilot2,adult_12,12,3AZHRG4CU5985OYPL0GT234TEMO03G,falling,2820,tangram,far,tangram-164.jpg,tangram-64.jpg,survey-text,31,181551,adult,NA,NA,7,fall
pilot2,adult_12,12,3AZHRG4CU5985OYPL0GT234TEMO03G,waling,2925,tangram,far,B1.jpg,tangram-4.jpg,survey-text,32,184992,adult,NA,NA,6,wale
pilot2,adult_12,12,3AZHRG4CU5985OYPL0GT234TEMO03G,rnning,1783,tangram,far,tangram-55.jpg,tangram-143.jpg,survey-text,33,187290,adult,NA,NA,6,rnning
pilot2,adult_12,12,3AZHRG4CU5985OYPL0GT234TEMO03G,running,4209,tangram,far,tangram-48.jpg,D1.jpg,survey-text,34,192014,adult,NA,NA,7,run
pilot2,adult_12,12,3AZHRG4CU5985OYPL0GT234TEMO03G,walking,2618,tangram,far,A2.jpg,C1.jpg,survey-text,35,195142,adult,NA,NA,7,walk
pilot2,adult_12,12,3AZHRG4CU5985OYPL0GT234TEMO03G,running,3508,tangram,far,tangram-67.jpg,G1.jpg,survey-text,36,199166,adult,NA,NA,7,run
pilot2,adult_12,12,3AZHRG4CU5985OYPL0GT234TEMO03G,walking,3647,tangram,far,tangram-90.jpg,tangram-120.jpg,survey-text,37,203331,adult,NA,NA,7,walk
pilot2,adult_12,12,3AZHRG4CU5985OYPL0GT234TEMO03G,walking,4600,tangram,isolated,B1.jpg,P1.jpg,survey-text,39,215587,adult,NA,NA,7,walk
pilot2,adult_12,12,3AZHRG4CU5985OYPL0GT234TEMO03G,walking fast,4857,tangram,isolated,tangram-90.jpg,tangram-81.jpg,survey-text,40,220956,adult,NA,NA,12,walkfast
pilot2,adult_12,12,3AZHRG4CU5985OYPL0GT234TEMO03G,running,2749,tangram,isolated,tangram-55.jpg,N1.jpg,survey-text,41,224210,adult,NA,NA,7,run
pilot2,adult_12,12,3AZHRG4CU5985OYPL0GT234TEMO03G,walking,2719,tangram,isolated,A2.jpg,tangram-99.jpg,survey-text,42,227450,adult,NA,NA,7,walk
pilot2,adult_12,12,3AZHRG4CU5985OYPL0GT234TEMO03G,running,2072,tangram,isolated,tangram-67.jpg,tangram-32.jpg,survey-text,43,230055,adult,NA,NA,7,run
pilot2,adult_12,12,3AZHRG4CU5985OYPL0GT234TEMO03G,parade,12446,tangram,isolated,tangram-48.jpg,tangram-187.jpg,survey-text,44,243014,adult,NA,NA,6,parade
pilot2,adult_12,12,3AZHRG4CU5985OYPL0GT234TEMO03G,holding something,12073,tangram,isolated,H1.jpg,I1.jpg,survey-text,45,255598,adult,NA,NA,17,hold
pilot2,adult_12,12,3AZHRG4CU5985OYPL0GT234TEMO03G,falling,2798,tangram,isolated,tangram-164.jpg,tangram-183.jpg,survey-text,46,258918,adult,NA,NA,7,fall
pilot2,adult_12,12,3AZHRG4CU5985OYPL0GT234TEMO03G,tshirt,5040,familiar,isolated,poloshirt.jpg,hawaiishirt.jpg,survey-text,48,268548,adult,NA,NA,6,tshirt
pilot2,adult_12,12,3AZHRG4CU5985OYPL0GT234TEMO03G,dog,2989,familiar,isolated,germanshepherd.jpg,pug.jpg,survey-text,49,272052,adult,NA,NA,3,dog
pilot2,adult_12,12,3AZHRG4CU5985OYPL0GT234TEMO03G,bird,2528,familiar,isolated,sparrow.jpg,eagle.jpg,survey-text,50,275092,adult,NA,NA,4,bird
pilot2,adult_12,12,3AZHRG4CU5985OYPL0GT234TEMO03G,car,1765,familiar,isolated,sedan.jpg,sportscar.jpg,survey-text,51,277383,adult,NA,NA,3,car
pilot2,adult_12,12,3AZHRG4CU5985OYPL0GT234TEMO03G,table,2206,familiar,isolated,diningtable.jpg,picnictable.jpg,survey-text,52,280117,adult,NA,NA,5,table
pilot2,adult_12,12,3AZHRG4CU5985OYPL0GT234TEMO03G,bear,1871,familiar,isolated,grizzlybear.jpg,polarbear.jpg,survey-text,53,282494,adult,NA,NA,4,bear
pilot2,adult_12,12,3AZHRG4CU5985OYPL0GT234TEMO03G,mnms,2436,familiar,isolated,mnms.jpg,gummybears.jpg,survey-text,54,285464,adult,NA,NA,4,mnms
pilot2,adult_12,12,3AZHRG4CU5985OYPL0GT234TEMO03G,fish,3174,familiar,isolated,goldfish.jpg,swordfish.jpg,survey-text,55,289164,adult,NA,NA,4,fish
pilot2,adult_13,13,3HHRAGRYX9UFN7FO4UJEJH3XCCTO9G,man,5883.505,tangram,isolated,tangram-90.jpg,tangram-81.jpg,survey-text,3,63751,adult,NA,NA,3,man
pilot2,adult_13,13,3HHRAGRYX9UFN7FO4UJEJH3XCCTO9G,soldier,6297.065,tangram,isolated,tangram-48.jpg,tangram-187.jpg,survey-text,4,70555,adult,NA,NA,7,soldier
pilot2,adult_13,13,3HHRAGRYX9UFN7FO4UJEJH3XCCTO9G,priest,3103.73,tangram,isolated,H1.jpg,I1.jpg,survey-text,5,74177,adult,NA,NA,6,priest
pilot2,adult_13,13,3HHRAGRYX9UFN7FO4UJEJH3XCCTO9G,jogger,2843.48,tangram,isolated,tangram-67.jpg,tangram-32.jpg,survey-text,6,77525,adult,NA,NA,6,jogger
pilot2,adult_13,13,3HHRAGRYX9UFN7FO4UJEJH3XCCTO9G,soccer player,3794.28,tangram,isolated,tangram-164.jpg,tangram-183.jpg,survey-text,7,81827,adult,NA,NA,13,soccerplayer
pilot2,adult_13,13,3HHRAGRYX9UFN7FO4UJEJH3XCCTO9G,grandpa,6266.8,tangram,isolated,B1.jpg,P1.jpg,survey-text,8,88607,adult,NA,NA,7,grandpa
pilot2,adult_13,13,3HHRAGRYX9UFN7FO4UJEJH3XCCTO9G,young woman,5446.93,tangram,isolated,A2.jpg,tangram-99.jpg,survey-text,9,94569,adult,NA,NA,11,youngwoman
pilot2,adult_13,13,3HHRAGRYX9UFN7FO4UJEJH3XCCTO9G,robber,5089.32,tangram,isolated,tangram-55.jpg,N1.jpg,survey-text,10,100161,adult,NA,NA,6,robber
pilot2,adult_13,13,3HHRAGRYX9UFN7FO4UJEJH3XCCTO9G,goldfish,4945.055,familiar,close,goldfish.jpg,swordfish.jpg,survey-text,12,110916,adult,NA,NA,8,goldfish
pilot2,adult_13,13,3HHRAGRYX9UFN7FO4UJEJH3XCCTO9G,big dog,3852.75,familiar,close,germanshepherd.jpg,pug.jpg,survey-text,13,115273,adult,NA,NA,7,bigdog
pilot2,adult_13,13,3HHRAGRYX9UFN7FO4UJEJH3XCCTO9G,solid,3999.26,familiar,close,poloshirt.jpg,hawaiishirt.jpg,survey-text,14,119788,adult,NA,NA,5,solid
pilot2,adult_13,13,3HHRAGRYX9UFN7FO4UJEJH3XCCTO9G,small,3839.38,familiar,close,sparrow.jpg,eagle.jpg,survey-text,15,124137,adult,NA,NA,5,small
pilot2,adult_13,13,3HHRAGRYX9UFN7FO4UJEJH3XCCTO9G,chocolate,3795.29,familiar,close,mnms.jpg,gummybears.jpg,survey-text,16,128439,adult,NA,NA,9,chocolate
pilot2,adult_13,13,3HHRAGRYX9UFN7FO4UJEJH3XCCTO9G,long table,5736.95,familiar,close,diningtable.jpg,picnictable.jpg,survey-text,17,134698,adult,NA,NA,10,longtable
pilot2,adult_13,13,3HHRAGRYX9UFN7FO4UJEJH3XCCTO9G,brown,5412.615,familiar,close,grizzlybear.jpg,polarbear.jpg,survey-text,18,140614,adult,NA,NA,5,brown
pilot2,adult_13,13,3HHRAGRYX9UFN7FO4UJEJH3XCCTO9G,blue,3209.08,familiar,close,sedan.jpg,sportscar.jpg,survey-text,19,144329,adult,NA,NA,4,blue
pilot2,adult_13,13,3HHRAGRYX9UFN7FO4UJEJH3XCCTO9G,kicker,9134.355,tangram,close,tangram-164.jpg,tangram-183.jpg,survey-text,21,158033,adult,NA,NA,6,kicker
pilot2,adult_13,13,3HHRAGRYX9UFN7FO4UJEJH3XCCTO9G,hurdle jump,12684.53,tangram,close,tangram-48.jpg,tangram-187.jpg,survey-text,22,171223,adult,NA,NA,11,hurdlejump
pilot2,adult_13,13,3HHRAGRYX9UFN7FO4UJEJH3XCCTO9G,faster,6292.385,tangram,close,tangram-55.jpg,N1.jpg,survey-text,23,178021,adult,NA,NA,6,fast
pilot2,adult_13,13,3HHRAGRYX9UFN7FO4UJEJH3XCCTO9G,ponytail,9915.59,tangram,close,A2.jpg,tangram-99.jpg,survey-text,24,188447,adult,NA,NA,8,ponytail
pilot2,adult_13,13,3HHRAGRYX9UFN7FO4UJEJH3XCCTO9G,long strides,4967.195,tangram,close,tangram-67.jpg,tangram-32.jpg,survey-text,25,193923,adult,NA,NA,12,longstride
pilot2,adult_13,13,3HHRAGRYX9UFN7FO4UJEJH3XCCTO9G,triangle,5425.96,tangram,close,tangram-90.jpg,tangram-81.jpg,survey-text,26,199853,adult,NA,NA,8,triangle
pilot2,adult_13,13,3HHRAGRYX9UFN7FO4UJEJH3XCCTO9G,kneeling,5692.55,tangram,close,H1.jpg,I1.jpg,survey-text,27,206063,adult,NA,NA,8,kneel
pilot2,adult_13,13,3HHRAGRYX9UFN7FO4UJEJH3XCCTO9G,sad,3894.2,tangram,close,B1.jpg,P1.jpg,survey-text,28,210467,adult,NA,NA,3,sad
pilot2,adult_13,13,3HHRAGRYX9UFN7FO4UJEJH3XCCTO9G,goldfish,2873.26,familiar,far,goldfish.jpg,iguana.jpg,survey-text,30,216814,adult,NA,NA,8,goldfish
pilot2,adult_13,13,3HHRAGRYX9UFN7FO4UJEJH3XCCTO9G,bird,2075.225,familiar,far,sparrow.jpg,squirrel.jpg,survey-text,31,219402,adult,NA,NA,4,bird
pilot2,adult_13,13,3HHRAGRYX9UFN7FO4UJEJH3XCCTO9G,polo,1961.06,familiar,far,poloshirt.jpg,dress.jpg,survey-text,32,221884,adult,NA,NA,4,polo
pilot2,adult_13,13,3HHRAGRYX9UFN7FO4UJEJH3XCCTO9G,table,1717.895,familiar,far,diningtable.jpg,wardrobe.jpg,survey-text,33,224110,adult,NA,NA,5,table
pilot2,adult_13,13,3HHRAGRYX9UFN7FO4UJEJH3XCCTO9G,car,1469.69,familiar,far,sedan.jpg,firetruck.jpg,survey-text,34,226087,adult,NA,NA,3,car
pilot2,adult_13,13,3HHRAGRYX9UFN7FO4UJEJH3XCCTO9G,dog,3254.945,familiar,far,germanshepherd.jpg,cow.jpg,survey-text,35,229864,adult,NA,NA,3,dog
pilot2,adult_13,13,3HHRAGRYX9UFN7FO4UJEJH3XCCTO9G,bear,1583.77,familiar,far,grizzlybear.jpg,lion.jpg,survey-text,36,231966,adult,NA,NA,4,bear
pilot2,adult_13,13,3HHRAGRYX9UFN7FO4UJEJH3XCCTO9G,chocolate,2173.875,familiar,far,mnms.jpg,pretzels.jpg,survey-text,37,234657,adult,NA,NA,9,chocolate
pilot2,adult_13,13,3HHRAGRYX9UFN7FO4UJEJH3XCCTO9G,sad walking,20585.785,tangram,far,B1.jpg,tangram-4.jpg,survey-text,39,257503,adult,NA,NA,11,sadwalk
pilot2,adult_13,13,3HHRAGRYX9UFN7FO4UJEJH3XCCTO9G,running,2493.655,tangram,far,tangram-67.jpg,G1.jpg,survey-text,40,260511,adult,NA,NA,7,run
pilot2,adult_13,13,3HHRAGRYX9UFN7FO4UJEJH3XCCTO9G,girl walking,2797.37,tangram,far,A2.jpg,C1.jpg,survey-text,41,263830,adult,NA,NA,12,girlwalk
pilot2,adult_13,13,3HHRAGRYX9UFN7FO4UJEJH3XCCTO9G,kicking,2507.035,tangram,far,tangram-48.jpg,D1.jpg,survey-text,42,266852,adult,NA,NA,7,kick
pilot2,adult_13,13,3HHRAGRYX9UFN7FO4UJEJH3XCCTO9G,dashing,1869.38,tangram,far,tangram-55.jpg,tangram-143.jpg,survey-text,43,269237,adult,NA,NA,7,dash
pilot2,adult_13,13,3HHRAGRYX9UFN7FO4UJEJH3XCCTO9G,arms out,7303.145,tangram,far,tangram-90.jpg,tangram-120.jpg,survey-text,44,277051,adult,NA,NA,8,armout
pilot2,adult_13,13,3HHRAGRYX9UFN7FO4UJEJH3XCCTO9G,kicking,2065.195,tangram,far,tangram-164.jpg,tangram-64.jpg,survey-text,45,279625,adult,NA,NA,7,kick
pilot2,adult_13,13,3HHRAGRYX9UFN7FO4UJEJH3XCCTO9G,kneeling,2271.535,tangram,far,H1.jpg,tangram-8.jpg,survey-text,46,282407,adult,NA,NA,8,kneel
pilot2,adult_13,13,3HHRAGRYX9UFN7FO4UJEJH3XCCTO9G,polo,3960.725,familiar,isolated,poloshirt.jpg,hawaiishirt.jpg,survey-text,48,288566,adult,NA,NA,4,polo
pilot2,adult_13,13,3HHRAGRYX9UFN7FO4UJEJH3XCCTO9G,goldfish,3845.345,familiar,isolated,goldfish.jpg,swordfish.jpg,survey-text,49,292931,adult,NA,NA,8,goldfish
pilot2,adult_13,13,3HHRAGRYX9UFN7FO4UJEJH3XCCTO9G,car,1782.76,familiar,isolated,sedan.jpg,sportscar.jpg,survey-text,50,295224,adult,NA,NA,3,car
pilot2,adult_13,13,3HHRAGRYX9UFN7FO4UJEJH3XCCTO9G,bear,1267.44,familiar,isolated,grizzlybear.jpg,polarbear.jpg,survey-text,51,297011,adult,NA,NA,4,bear
pilot2,adult_13,13,3HHRAGRYX9UFN7FO4UJEJH3XCCTO9G,table,1400.825,familiar,isolated,diningtable.jpg,picnictable.jpg,survey-text,52,298925,adult,NA,NA,5,table
pilot2,adult_13,13,3HHRAGRYX9UFN7FO4UJEJH3XCCTO9G,chocolate,1982.1,familiar,isolated,mnms.jpg,gummybears.jpg,survey-text,53,301429,adult,NA,NA,9,chocolate
pilot2,adult_13,13,3HHRAGRYX9UFN7FO4UJEJH3XCCTO9G,dog,1431.125,familiar,isolated,germanshepherd.jpg,pug.jpg,survey-text,54,303375,adult,NA,NA,3,dog
pilot2,adult_13,13,3HHRAGRYX9UFN7FO4UJEJH3XCCTO9G,bird,1429.655,familiar,isolated,sparrow.jpg,eagle.jpg,survey-text,55,305318,adult,NA,NA,4,bird
pilot2,adult_14,14,326O153BMJN5E6FGMWLK01S9ZV0EDH,dog,7023.915,familiar,isolated,germanshepherd.jpg,pug.jpg,survey-text,3,27860,adult,NA,NA,3,dog
pilot2,adult_14,14,326O153BMJN5E6FGMWLK01S9ZV0EDH,table,4183.16,familiar,isolated,diningtable.jpg,picnictable.jpg,survey-text,4,32548,adult,NA,NA,5,table
pilot2,adult_14,14,326O153BMJN5E6FGMWLK01S9ZV0EDH,candy,4141.415,familiar,isolated,mnms.jpg,gummybears.jpg,survey-text,5,37196,adult,NA,NA,5,candy
pilot2,adult_14,14,326O153BMJN5E6FGMWLK01S9ZV0EDH,bear,3330.195,familiar,isolated,grizzlybear.jpg,polarbear.jpg,survey-text,6,41032,adult,NA,NA,4,bear
pilot2,adult_14,14,326O153BMJN5E6FGMWLK01S9ZV0EDH,shirt,2962.51,familiar,isolated,poloshirt.jpg,hawaiishirt.jpg,survey-text,7,44499,adult,NA,NA,5,shirt
pilot2,adult_14,14,326O153BMJN5E6FGMWLK01S9ZV0EDH,bird,3985.07,familiar,isolated,sparrow.jpg,eagle.jpg,survey-text,8,48992,adult,NA,NA,4,bird
pilot2,adult_14,14,326O153BMJN5E6FGMWLK01S9ZV0EDH,car,2900.44,familiar,isolated,sedan.jpg,sportscar.jpg,survey-text,9,52405,adult,NA,NA,3,car
pilot2,adult_14,14,326O153BMJN5E6FGMWLK01S9ZV0EDH,fish,2105.935,familiar,isolated,goldfish.jpg,swordfish.jpg,survey-text,10,55025,adult,NA,NA,4,fish
pilot2,adult_14,14,326O153BMJN5E6FGMWLK01S9ZV0EDH,candy,5406.99,familiar,far,mnms.jpg,pretzels.jpg,survey-text,12,67978,adult,NA,NA,5,candy
pilot2,adult_14,14,326O153BMJN5E6FGMWLK01S9ZV0EDH,dog,2490.1,familiar,far,germanshepherd.jpg,cow.jpg,survey-text,13,70977,adult,NA,NA,3,dog
pilot2,adult_14,14,326O153BMJN5E6FGMWLK01S9ZV0EDH,table,2626.575,familiar,far,diningtable.jpg,wardrobe.jpg,survey-text,14,74116,adult,NA,NA,5,table
pilot2,adult_14,14,326O153BMJN5E6FGMWLK01S9ZV0EDH,bear,2048.09,familiar,far,grizzlybear.jpg,lion.jpg,survey-text,15,76672,adult,NA,NA,4,bear
pilot2,adult_14,14,326O153BMJN5E6FGMWLK01S9ZV0EDH,car,2391.315,familiar,far,sedan.jpg,firetruck.jpg,survey-text,16,79579,adult,NA,NA,3,car
pilot2,adult_14,14,326O153BMJN5E6FGMWLK01S9ZV0EDH,shirt,2354.675,familiar,far,poloshirt.jpg,dress.jpg,survey-text,17,82447,adult,NA,NA,5,shirt
pilot2,adult_14,14,326O153BMJN5E6FGMWLK01S9ZV0EDH,bird,2078.66,familiar,far,sparrow.jpg,squirrel.jpg,survey-text,18,85035,adult,NA,NA,4,bird
pilot2,adult_14,14,326O153BMJN5E6FGMWLK01S9ZV0EDH,fish,2162.325,familiar,far,goldfish.jpg,iguana.jpg,survey-text,19,87707,adult,NA,NA,4,fish
pilot2,adult_14,14,326O153BMJN5E6FGMWLK01S9ZV0EDH,man,4354.905,tangram,close,tangram-90.jpg,tangram-81.jpg,survey-text,21,100211,adult,NA,NA,3,man
pilot2,adult_14,14,326O153BMJN5E6FGMWLK01S9ZV0EDH,running,6636,tangram,close,tangram-67.jpg,tangram-32.jpg,survey-text,22,107356,adult,NA,NA,7,run
pilot2,adult_14,14,326O153BMJN5E6FGMWLK01S9ZV0EDH,kicking,2997.845,tangram,close,tangram-48.jpg,tangram-187.jpg,survey-text,23,110860,adult,NA,NA,7,kick
pilot2,adult_14,14,326O153BMJN5E6FGMWLK01S9ZV0EDH,walking,3053.64,tangram,close,A2.jpg,tangram-99.jpg,survey-text,24,114427,adult,NA,NA,7,walk
pilot2,adult_14,14,326O153BMJN5E6FGMWLK01S9ZV0EDH,sprinting,6051.075,tangram,close,tangram-55.jpg,N1.jpg,survey-text,25,120993,adult,NA,NA,9,sprint
pilot2,adult_14,14,326O153BMJN5E6FGMWLK01S9ZV0EDH,falling,2834.095,tangram,close,tangram-164.jpg,tangram-183.jpg,survey-text,26,124331,adult,NA,NA,7,fall
pilot2,adult_14,14,326O153BMJN5E6FGMWLK01S9ZV0EDH,holding,3171.55,tangram,close,H1.jpg,I1.jpg,survey-text,27,128015,adult,NA,NA,7,hold
pilot2,adult_14,14,326O153BMJN5E6FGMWLK01S9ZV0EDH,walking,3627.695,tangram,close,B1.jpg,P1.jpg,survey-text,28,132155,adult,NA,NA,7,walk
pilot2,adult_14,14,326O153BMJN5E6FGMWLK01S9ZV0EDH,table,1933.18,familiar,close,diningtable.jpg,picnictable.jpg,survey-text,30,137354,adult,NA,NA,5,table
pilot2,adult_14,14,326O153BMJN5E6FGMWLK01S9ZV0EDH,candy,2028.855,familiar,close,mnms.jpg,gummybears.jpg,survey-text,31,139891,adult,NA,NA,5,candy
pilot2,adult_14,14,326O153BMJN5E6FGMWLK01S9ZV0EDH,shirt,2441.74,familiar,close,poloshirt.jpg,hawaiishirt.jpg,survey-text,32,142843,adult,NA,NA,5,shirt
pilot2,adult_14,14,326O153BMJN5E6FGMWLK01S9ZV0EDH,car,1656.535,familiar,close,sedan.jpg,sportscar.jpg,survey-text,33,145007,adult,NA,NA,3,car
pilot2,adult_14,14,326O153BMJN5E6FGMWLK01S9ZV0EDH,bird,1915.54,familiar,close,sparrow.jpg,eagle.jpg,survey-text,34,147435,adult,NA,NA,4,bird
pilot2,adult_14,14,326O153BMJN5E6FGMWLK01S9ZV0EDH,fish,2808.655,familiar,close,goldfish.jpg,swordfish.jpg,survey-text,35,150758,adult,NA,NA,4,fish
pilot2,adult_14,14,326O153BMJN5E6FGMWLK01S9ZV0EDH,dog,2230.655,familiar,close,germanshepherd.jpg,pug.jpg,survey-text,36,153497,adult,NA,NA,3,dog
pilot2,adult_14,14,326O153BMJN5E6FGMWLK01S9ZV0EDH,bear,3172.2,familiar,close,grizzlybear.jpg,polarbear.jpg,survey-text,37,157177,adult,NA,NA,4,bear
pilot2,adult_14,14,326O153BMJN5E6FGMWLK01S9ZV0EDH,running,3844.955,tangram,far,tangram-55.jpg,tangram-143.jpg,survey-text,39,168110,adult,NA,NA,7,run
pilot2,adult_14,14,326O153BMJN5E6FGMWLK01S9ZV0EDH,running,2974.19,tangram,far,tangram-67.jpg,G1.jpg,survey-text,40,171594,adult,NA,NA,7,run
pilot2,adult_14,14,326O153BMJN5E6FGMWLK01S9ZV0EDH,walking,3097.605,tangram,far,B1.jpg,tangram-4.jpg,survey-text,41,175200,adult,NA,NA,7,walk
pilot2,adult_14,14,326O153BMJN5E6FGMWLK01S9ZV0EDH,falling,3141.885,tangram,far,tangram-164.jpg,tangram-64.jpg,survey-text,42,178851,adult,NA,NA,7,fall
pilot2,adult_14,14,326O153BMJN5E6FGMWLK01S9ZV0EDH,walking,2661.49,tangram,far,A2.jpg,C1.jpg,survey-text,43,182019,adult,NA,NA,7,walk
pilot2,adult_14,14,326O153BMJN5E6FGMWLK01S9ZV0EDH,holding,3044.04,tangram,far,H1.jpg,tangram-8.jpg,survey-text,44,185575,adult,NA,NA,7,hold
pilot2,adult_14,14,326O153BMJN5E6FGMWLK01S9ZV0EDH,walking,5500.95,tangram,far,tangram-90.jpg,tangram-120.jpg,survey-text,45,191584,adult,NA,NA,7,walk
pilot2,adult_14,14,326O153BMJN5E6FGMWLK01S9ZV0EDH,kicking,2220.33,tangram,far,tangram-48.jpg,D1.jpg,survey-text,46,194314,adult,NA,NA,7,kick
pilot2,adult_14,14,326O153BMJN5E6FGMWLK01S9ZV0EDH,running,4845.6,tangram,isolated,tangram-67.jpg,tangram-32.jpg,survey-text,48,202626,adult,NA,NA,7,run
pilot2,adult_14,14,326O153BMJN5E6FGMWLK01S9ZV0EDH,walking,2621.035,tangram,isolated,tangram-90.jpg,tangram-81.jpg,survey-text,49,205760,adult,NA,NA,7,walk
pilot2,adult_14,14,326O153BMJN5E6FGMWLK01S9ZV0EDH,walking,2729.355,tangram,isolated,B1.jpg,P1.jpg,survey-text,50,208998,adult,NA,NA,7,walk
pilot2,adult_14,14,326O153BMJN5E6FGMWLK01S9ZV0EDH,kicking,2319.055,tangram,isolated,tangram-48.jpg,tangram-187.jpg,survey-text,51,211826,adult,NA,NA,7,kick
pilot2,adult_14,14,326O153BMJN5E6FGMWLK01S9ZV0EDH,walking,2040.51,tangram,isolated,A2.jpg,tangram-99.jpg,survey-text,52,214382,adult,NA,NA,7,walk
pilot2,adult_14,14,326O153BMJN5E6FGMWLK01S9ZV0EDH,falling,2105.785,tangram,isolated,tangram-164.jpg,tangram-183.jpg,survey-text,53,216999,adult,NA,NA,7,fall
pilot2,adult_14,14,326O153BMJN5E6FGMWLK01S9ZV0EDH,holding,2126.205,tangram,isolated,H1.jpg,I1.jpg,survey-text,54,219638,adult,NA,NA,7,hold
pilot2,adult_14,14,326O153BMJN5E6FGMWLK01S9ZV0EDH,running,2439.79,tangram,isolated,tangram-55.jpg,N1.jpg,survey-text,55,222587,adult,NA,NA,7,run
pilot2,adult_15,15,3AMW0RGHOERIX9VJK4FYQI37R6RNPG,right kick,12635.34,tangram,close,tangram-164.jpg,tangram-183.jpg,survey-text,3,22778,adult,NA,NA,10,rightkick
pilot2,adult_15,15,3AMW0RGHOERIX9VJK4FYQI37R6RNPG,upright,6882.49,tangram,close,H1.jpg,I1.jpg,survey-text,4,30168,adult,NA,NA,7,upright
pilot2,adult_15,15,3AMW0RGHOERIX9VJK4FYQI37R6RNPG,left kick,4111.025,tangram,close,tangram-48.jpg,tangram-187.jpg,survey-text,5,34786,adult,NA,NA,9,leftkick
pilot2,adult_15,15,3AMW0RGHOERIX9VJK4FYQI37R6RNPG,right rush,3704.155,tangram,close,tangram-55.jpg,N1.jpg,survey-text,6,38994,adult,NA,NA,10,rightrush
pilot2,adult_15,15,3AMW0RGHOERIX9VJK4FYQI37R6RNPG,left throw,4914.075,tangram,close,A2.jpg,tangram-99.jpg,survey-text,7,44414,adult,NA,NA,10,leftthrow
pilot2,adult_15,15,3AMW0RGHOERIX9VJK4FYQI37R6RNPG,right jump,6538.53,tangram,close,tangram-67.jpg,tangram-32.jpg,survey-text,8,51459,adult,NA,NA,10,rightjump
pilot2,adult_15,15,3AMW0RGHOERIX9VJK4FYQI37R6RNPG,left down,3138.8,tangram,close,B1.jpg,P1.jpg,survey-text,9,55105,adult,NA,NA,9,leftdown
pilot2,adult_15,15,3AMW0RGHOERIX9VJK4FYQI37R6RNPG,open wide,5990.455,tangram,close,tangram-90.jpg,tangram-81.jpg,survey-text,10,61602,adult,NA,NA,9,openwide
pilot2,adult_15,15,3AMW0RGHOERIX9VJK4FYQI37R6RNPG,bear,4636.785,familiar,close,grizzlybear.jpg,polarbear.jpg,survey-text,12,67958,adult,NA,NA,4,bear
pilot2,adult_15,15,3AMW0RGHOERIX9VJK4FYQI37R6RNPG,dog,3003.33,familiar,close,germanshepherd.jpg,pug.jpg,survey-text,13,71469,adult,NA,NA,3,dog
pilot2,adult_15,15,3AMW0RGHOERIX9VJK4FYQI37R6RNPG,m&ms,3394.52,familiar,close,mnms.jpg,gummybears.jpg,survey-text,14,75369,adult,NA,NA,4,mnms
pilot2,adult_15,15,3AMW0RGHOERIX9VJK4FYQI37R6RNPG,table,2390.835,familiar,close,diningtable.jpg,picnictable.jpg,survey-text,15,78270,adult,NA,NA,5,table
pilot2,adult_15,15,3AMW0RGHOERIX9VJK4FYQI37R6RNPG,bird,2103.665,familiar,close,sparrow.jpg,eagle.jpg,survey-text,16,80880,adult,NA,NA,4,bird
pilot2,adult_15,15,3AMW0RGHOERIX9VJK4FYQI37R6RNPG,blue car,3941.04,familiar,close,sedan.jpg,sportscar.jpg,survey-text,17,85331,adult,NA,NA,8,bluecar
pilot2,adult_15,15,3AMW0RGHOERIX9VJK4FYQI37R6RNPG,gold fish,4894.16,familiar,close,goldfish.jpg,swordfish.jpg,survey-text,18,90731,adult,NA,NA,9,goldfish
pilot2,adult_15,15,3AMW0RGHOERIX9VJK4FYQI37R6RNPG,blue collar,4607.885,familiar,close,poloshirt.jpg,hawaiishirt.jpg,survey-text,19,95845,adult,NA,NA,11,bluecollar
pilot2,adult_15,15,3AMW0RGHOERIX9VJK4FYQI37R6RNPG,left throw,5836.46,tangram,far,A2.jpg,C1.jpg,survey-text,21,103677,adult,NA,NA,10,leftthrow
pilot2,adult_15,15,3AMW0RGHOERIX9VJK4FYQI37R6RNPG,left kick,5369.205,tangram,far,tangram-48.jpg,D1.jpg,survey-text,22,109553,adult,NA,NA,9,leftkick
pilot2,adult_15,15,3AMW0RGHOERIX9VJK4FYQI37R6RNPG,right kick,4110.95,tangram,far,tangram-164.jpg,tangram-64.jpg,survey-text,23,114171,adult,NA,NA,10,rightkick
pilot2,adult_15,15,3AMW0RGHOERIX9VJK4FYQI37R6RNPG,open wide,4298.595,tangram,far,tangram-90.jpg,tangram-120.jpg,survey-text,24,118975,adult,NA,NA,9,openwide
pilot2,adult_15,15,3AMW0RGHOERIX9VJK4FYQI37R6RNPG,left down,3754.75,tangram,far,B1.jpg,tangram-4.jpg,survey-text,25,123238,adult,NA,NA,9,leftdown
pilot2,adult_15,15,3AMW0RGHOERIX9VJK4FYQI37R6RNPG,upright,3537.545,tangram,far,H1.jpg,tangram-8.jpg,survey-text,26,127282,adult,NA,NA,7,upright
pilot2,adult_15,15,3AMW0RGHOERIX9VJK4FYQI37R6RNPG,right rush,5052.39,tangram,far,tangram-55.jpg,tangram-143.jpg,survey-text,27,132842,adult,NA,NA,10,rightrush
pilot2,adult_15,15,3AMW0RGHOERIX9VJK4FYQI37R6RNPG,open wide,4644.415,tangram,far,tangram-67.jpg,G1.jpg,survey-text,28,137993,adult,NA,NA,9,openwide
pilot2,adult_15,15,3AMW0RGHOERIX9VJK4FYQI37R6RNPG,blue shirt,7150.12,familiar,isolated,poloshirt.jpg,hawaiishirt.jpg,survey-text,30,146973,adult,NA,NA,10,blueshirt
pilot2,adult_15,15,3AMW0RGHOERIX9VJK4FYQI37R6RNPG,blue caar,2711.56,familiar,isolated,sedan.jpg,sportscar.jpg,survey-text,31,150193,adult,NA,NA,9,bluecar
pilot2,adult_15,15,3AMW0RGHOERIX9VJK4FYQI37R6RNPG,table,2182.875,familiar,isolated,diningtable.jpg,picnictable.jpg,survey-text,32,152881,adult,NA,NA,5,table
pilot2,adult_15,15,3AMW0RGHOERIX9VJK4FYQI37R6RNPG,mmms,3089.875,familiar,isolated,mnms.jpg,gummybears.jpg,survey-text,33,156478,adult,NA,NA,4,mmms
pilot2,adult_15,15,3AMW0RGHOERIX9VJK4FYQI37R6RNPG,gold fish,2654.4,familiar,isolated,goldfish.jpg,swordfish.jpg,survey-text,34,159640,adult,NA,NA,9,goldfish
pilot2,adult_15,15,3AMW0RGHOERIX9VJK4FYQI37R6RNPG,bear,1733.585,familiar,isolated,grizzlybear.jpg,polarbear.jpg,survey-text,35,161880,adult,NA,NA,4,bear
pilot2,adult_15,15,3AMW0RGHOERIX9VJK4FYQI37R6RNPG,dog,1769.28,familiar,isolated,germanshepherd.jpg,pug.jpg,survey-text,36,164157,adult,NA,NA,3,dog
pilot2,adult_15,15,3AMW0RGHOERIX9VJK4FYQI37R6RNPG,bird,1991.63,familiar,isolated,sparrow.jpg,eagle.jpg,survey-text,37,166655,adult,NA,NA,4,bird
pilot2,adult_15,15,3AMW0RGHOERIX9VJK4FYQI37R6RNPG,mms,2356.675,familiar,far,mnms.jpg,pretzels.jpg,survey-text,39,170680,adult,NA,NA,3,mm
pilot2,adult_15,15,3AMW0RGHOERIX9VJK4FYQI37R6RNPG,bear,1754.985,familiar,far,grizzlybear.jpg,lion.jpg,survey-text,40,172941,adult,NA,NA,4,bear
pilot2,adult_15,15,3AMW0RGHOERIX9VJK4FYQI37R6RNPG,table,1785.845,familiar,far,diningtable.jpg,wardrobe.jpg,survey-text,41,175234,adult,NA,NA,5,table
pilot2,adult_15,15,3AMW0RGHOERIX9VJK4FYQI37R6RNPG,blue,2180.66,familiar,far,poloshirt.jpg,dress.jpg,survey-text,42,177922,adult,NA,NA,4,blue
pilot2,adult_15,15,3AMW0RGHOERIX9VJK4FYQI37R6RNPG,bird,1812.08,familiar,far,sparrow.jpg,squirrel.jpg,survey-text,43,180239,adult,NA,NA,4,bird
pilot2,adult_15,15,3AMW0RGHOERIX9VJK4FYQI37R6RNPG,fish,2236.725,familiar,far,goldfish.jpg,iguana.jpg,survey-text,44,182983,adult,NA,NA,4,fish
pilot2,adult_15,15,3AMW0RGHOERIX9VJK4FYQI37R6RNPG,car,1934.85,familiar,far,sedan.jpg,firetruck.jpg,survey-text,45,185425,adult,NA,NA,3,car
pilot2,adult_15,15,3AMW0RGHOERIX9VJK4FYQI37R6RNPG,dog,1832.315,familiar,far,germanshepherd.jpg,cow.jpg,survey-text,46,187766,adult,NA,NA,3,dog
pilot2,adult_15,15,3AMW0RGHOERIX9VJK4FYQI37R6RNPG,up,3553.29,tangram,isolated,tangram-90.jpg,tangram-81.jpg,survey-text,48,193750,adult,NA,NA,2,up
pilot2,adult_15,15,3AMW0RGHOERIX9VJK4FYQI37R6RNPG,right,1849.915,tangram,isolated,tangram-55.jpg,N1.jpg,survey-text,49,196106,adult,NA,NA,5,right
pilot2,adult_15,15,3AMW0RGHOERIX9VJK4FYQI37R6RNPG,left,1651.915,tangram,isolated,tangram-48.jpg,tangram-187.jpg,survey-text,50,198264,adult,NA,NA,4,left
pilot2,adult_15,15,3AMW0RGHOERIX9VJK4FYQI37R6RNPG,left,3040.675,tangram,isolated,A2.jpg,tangram-99.jpg,survey-text,51,201814,adult,NA,NA,4,left
pilot2,adult_15,15,3AMW0RGHOERIX9VJK4FYQI37R6RNPG,right,2103.7,tangram,isolated,tangram-164.jpg,tangram-183.jpg,survey-text,52,204424,adult,NA,NA,5,right
pilot2,adult_15,15,3AMW0RGHOERIX9VJK4FYQI37R6RNPG,right,1697.54,tangram,isolated,tangram-67.jpg,tangram-32.jpg,survey-text,53,206628,adult,NA,NA,5,right
pilot2,adult_15,15,3AMW0RGHOERIX9VJK4FYQI37R6RNPG,left,1985.855,tangram,isolated,B1.jpg,P1.jpg,survey-text,54,209120,adult,NA,NA,4,left
pilot2,adult_15,15,3AMW0RGHOERIX9VJK4FYQI37R6RNPG,upright,2418.26,tangram,isolated,H1.jpg,I1.jpg,survey-text,55,212045,adult,NA,NA,7,upright
pilot2,adult_17,17,3OLF68YTNAQZMDC0XXEOSI53QU7FAP,colorful candy,13057,familiar,isolated,mnms.jpg,gummybears.jpg,survey-text,3,68541,adult,NA,NA,14,colorcandy
pilot2,adult_17,17,3OLF68YTNAQZMDC0XXEOSI53QU7FAP,new car,8684,familiar,isolated,sedan.jpg,sportscar.jpg,survey-text,4,77736,adult,NA,NA,7,newcar
pilot2,adult_17,17,3OLF68YTNAQZMDC0XXEOSI53QU7FAP,dog stretching,11422,familiar,isolated,germanshepherd.jpg,pug.jpg,survey-text,5,89666,adult,NA,NA,14,dogstretch
pilot2,adult_17,17,3OLF68YTNAQZMDC0XXEOSI53QU7FAP,polo shirt,8887,familiar,isolated,poloshirt.jpg,hawaiishirt.jpg,survey-text,6,99060,adult,NA,NA,10,poloshirt
pilot2,adult_17,17,3OLF68YTNAQZMDC0XXEOSI53QU7FAP,goldfish,7140,familiar,isolated,goldfish.jpg,swordfish.jpg,survey-text,7,106712,adult,NA,NA,8,goldfish
pilot2,adult_17,17,3OLF68YTNAQZMDC0XXEOSI53QU7FAP,long table,7995,familiar,isolated,diningtable.jpg,picnictable.jpg,survey-text,8,115218,adult,NA,NA,10,longtable
pilot2,adult_17,17,3OLF68YTNAQZMDC0XXEOSI53QU7FAP,grizzly bear,7567,familiar,isolated,grizzlybear.jpg,polarbear.jpg,survey-text,9,123296,adult,NA,NA,12,grizzlybear
pilot2,adult_17,17,3OLF68YTNAQZMDC0XXEOSI53QU7FAP,small bird,9424,familiar,isolated,sparrow.jpg,eagle.jpg,survey-text,10,133227,adult,NA,NA,10,smallbird
pilot2,adult_17,17,3OLF68YTNAQZMDC0XXEOSI53QU7FAP,orange,51284,familiar,far,goldfish.jpg,iguana.jpg,survey-text,12,203153,adult,NA,NA,6,orange
pilot2,adult_17,17,3OLF68YTNAQZMDC0XXEOSI53QU7FAP,colorful,13816,familiar,far,mnms.jpg,pretzels.jpg,survey-text,13,217481,adult,NA,NA,8,colorful
pilot2,adult_17,17,3OLF68YTNAQZMDC0XXEOSI53QU7FAP,pet,11293,familiar,far,germanshepherd.jpg,cow.jpg,survey-text,14,229283,adult,NA,NA,3,pet
pilot2,adult_17,17,3OLF68YTNAQZMDC0XXEOSI53QU7FAP,fish eater,23293,familiar,far,grizzlybear.jpg,lion.jpg,survey-text,15,253087,adult,NA,NA,10,fisheater
pilot2,adult_17,17,3OLF68YTNAQZMDC0XXEOSI53QU7FAP,mens apparel,27639,familiar,far,poloshirt.jpg,dress.jpg,survey-text,16,281238,adult,NA,NA,13,mansapparel
pilot2,adult_17,17,3OLF68YTNAQZMDC0XXEOSI53QU7FAP,avian,16057,familiar,far,sparrow.jpg,squirrel.jpg,survey-text,17,297806,adult,NA,NA,5,avian
pilot2,adult_17,17,3OLF68YTNAQZMDC0XXEOSI53QU7FAP,extended,33480,familiar,far,diningtable.jpg,wardrobe.jpg,survey-text,18,331796,adult,NA,NA,8,extend
pilot2,adult_17,17,3OLF68YTNAQZMDC0XXEOSI53QU7FAP,home vehicle,13361,familiar,far,sedan.jpg,firetruck.jpg,survey-text,19,345667,adult,NA,NA,12,homevehicle
pilot2,adult_17,17,3OLF68YTNAQZMDC0XXEOSI53QU7FAP,human like,15561,tangram,far,B1.jpg,tangram-4.jpg,survey-text,21,375421,adult,NA,NA,10,humanlike
pilot2,adult_17,17,3OLF68YTNAQZMDC0XXEOSI53QU7FAP,figure walking,12662,tangram,far,A2.jpg,C1.jpg,survey-text,22,388595,adult,NA,NA,14,walk
pilot2,adult_17,17,3OLF68YTNAQZMDC0XXEOSI53QU7FAP,mid step,12863,tangram,far,tangram-48.jpg,D1.jpg,survey-text,23,401970,adult,NA,NA,8,midstep
pilot2,adult_17,17,3OLF68YTNAQZMDC0XXEOSI53QU7FAP,mid stride,18730,tangram,far,tangram-90.jpg,tangram-120.jpg,survey-text,24,421211,adult,NA,NA,10,midstride
pilot2,adult_17,17,3OLF68YTNAQZMDC0XXEOSI53QU7FAP,figure running,10679,tangram,far,tangram-67.jpg,G1.jpg,survey-text,25,432400,adult,NA,NA,14,run
pilot2,adult_17,17,3OLF68YTNAQZMDC0XXEOSI53QU7FAP,looking up,17694,tangram,far,H1.jpg,tangram-8.jpg,survey-text,26,450606,adult,NA,NA,10,lookup
pilot2,adult_17,17,3OLF68YTNAQZMDC0XXEOSI53QU7FAP,figure running,12479,tangram,far,tangram-55.jpg,tangram-143.jpg,survey-text,27,463595,adult,NA,NA,14,run
pilot2,adult_17,17,3OLF68YTNAQZMDC0XXEOSI53QU7FAP,crossed legs,11573,tangram,far,tangram-164.jpg,tangram-64.jpg,survey-text,28,475679,adult,NA,NA,12,crossleg
pilot2,adult_17,17,3OLF68YTNAQZMDC0XXEOSI53QU7FAP,figure walking,13299,tangram,isolated,A2.jpg,tangram-99.jpg,survey-text,30,495379,adult,NA,NA,14,walk
pilot2,adult_17,17,3OLF68YTNAQZMDC0XXEOSI53QU7FAP,figure stepping,20242,tangram,isolated,tangram-90.jpg,tangram-81.jpg,survey-text,31,516132,adult,NA,NA,15,step
pilot2,adult_17,17,3OLF68YTNAQZMDC0XXEOSI53QU7FAP,figure walking,78691,tangram,isolated,tangram-48.jpg,tangram-187.jpg,survey-text,32,595332,adult,NA,NA,14,walk
pilot2,adult_17,17,3OLF68YTNAQZMDC0XXEOSI53QU7FAP,figure running,7966,tangram,isolated,tangram-55.jpg,N1.jpg,survey-text,33,603807,adult,NA,NA,14,run
pilot2,adult_17,17,3OLF68YTNAQZMDC0XXEOSI53QU7FAP,figure jumping,9503,tangram,isolated,tangram-67.jpg,tangram-32.jpg,survey-text,34,613821,adult,NA,NA,14,jump
pilot2,adult_17,17,3OLF68YTNAQZMDC0XXEOSI53QU7FAP,figure sitting,26810,tangram,isolated,tangram-164.jpg,tangram-183.jpg,survey-text,35,641141,adult,NA,NA,14,sit
pilot2,adult_17,17,3OLF68YTNAQZMDC0XXEOSI53QU7FAP,figure praying,10413,tangram,isolated,H1.jpg,I1.jpg,survey-text,36,652062,adult,NA,NA,14,pray
pilot2,adult_17,17,3OLF68YTNAQZMDC0XXEOSI53QU7FAP,figure walking,9338,tangram,isolated,B1.jpg,P1.jpg,survey-text,37,661906,adult,NA,NA,14,walk
pilot2,adult_17,17,3OLF68YTNAQZMDC0XXEOSI53QU7FAP,wide step,12839,tangram,close,A2.jpg,tangram-99.jpg,survey-text,39,678034,adult,NA,NA,9,widestep
pilot2,adult_17,17,3OLF68YTNAQZMDC0XXEOSI53QU7FAP,upright,11143,tangram,close,tangram-164.jpg,tangram-183.jpg,survey-text,40,689687,adult,NA,NA,7,upright
pilot2,adult_17,17,3OLF68YTNAQZMDC0XXEOSI53QU7FAP,looking down,12362,tangram,close,B1.jpg,P1.jpg,survey-text,41,702560,adult,NA,NA,12,lookdown
pilot2,adult_17,17,3OLF68YTNAQZMDC0XXEOSI53QU7FAP,wide stride,10332,tangram,close,tangram-67.jpg,tangram-32.jpg,survey-text,42,713405,adult,NA,NA,11,widestride
pilot2,adult_17,17,3OLF68YTNAQZMDC0XXEOSI53QU7FAP,playful,8930,tangram,close,tangram-90.jpg,tangram-81.jpg,survey-text,43,722846,adult,NA,NA,7,playful
pilot2,adult_17,17,3OLF68YTNAQZMDC0XXEOSI53QU7FAP,leaning forward,16297,tangram,close,tangram-48.jpg,tangram-187.jpg,survey-text,44,739654,adult,NA,NA,15,leanforward
pilot2,adult_17,17,3OLF68YTNAQZMDC0XXEOSI53QU7FAP,no legs,25231,tangram,close,H1.jpg,I1.jpg,survey-text,45,765400,adult,NA,NA,7,noleg
pilot2,adult_17,17,3OLF68YTNAQZMDC0XXEOSI53QU7FAP,more narrow,18273,tangram,close,tangram-55.jpg,N1.jpg,survey-text,46,784182,adult,NA,NA,11,muchnarrow
pilot2,adult_17,17,3OLF68YTNAQZMDC0XXEOSI53QU7FAP,facing left,13822,familiar,close,germanshepherd.jpg,pug.jpg,survey-text,48,802514,adult,NA,NA,11,faceleft
pilot2,adult_17,17,3OLF68YTNAQZMDC0XXEOSI53QU7FAP,longest table,11107,familiar,close,diningtable.jpg,picnictable.jpg,survey-text,49,814134,adult,NA,NA,13,longtable
pilot2,adult_17,17,3OLF68YTNAQZMDC0XXEOSI53QU7FAP,darkest fur,12084,familiar,close,grizzlybear.jpg,polarbear.jpg,survey-text,50,826729,adult,NA,NA,11,darkfur
pilot2,adult_17,17,3OLF68YTNAQZMDC0XXEOSI53QU7FAP,smaller bird,23076,familiar,close,sparrow.jpg,eagle.jpg,survey-text,51,850316,adult,NA,NA,12,smallbird
pilot2,adult_17,17,3OLF68YTNAQZMDC0XXEOSI53QU7FAP,small fish,11141,familiar,close,goldfish.jpg,swordfish.jpg,survey-text,52,861967,adult,NA,NA,10,smallfish
pilot2,adult_17,17,3OLF68YTNAQZMDC0XXEOSI53QU7FAP,economy car,26422,familiar,close,sedan.jpg,sportscar.jpg,survey-text,53,888902,adult,NA,NA,11,economycar
pilot2,adult_17,17,3OLF68YTNAQZMDC0XXEOSI53QU7FAP,circular candy,11343,familiar,close,mnms.jpg,gummybears.jpg,survey-text,54,900757,adult,NA,NA,14,circularcandy
pilot2,adult_17,17,3OLF68YTNAQZMDC0XXEOSI53QU7FAP,plain shirt,12366,familiar,close,poloshirt.jpg,hawaiishirt.jpg,survey-text,55,913633,adult,NA,NA,11,plainshirt
pilot2,adult_19,19,3HQUKB7LNG3YAWBKYTCGCP4KJ3KHH8,running,13971,tangram,close,tangram-55.jpg,N1.jpg,survey-text,3,65759,adult,NA,NA,7,run
pilot2,adult_19,19,3HQUKB7LNG3YAWBKYTCGCP4KJ3KHH8,seated,9898,tangram,close,tangram-164.jpg,tangram-183.jpg,survey-text,4,76193,adult,NA,NA,6,seat
pilot2,adult_19,19,3HQUKB7LNG3YAWBKYTCGCP4KJ3KHH8,candle,13747,tangram,close,H1.jpg,I1.jpg,survey-text,5,90482,adult,NA,NA,6,candle
pilot2,adult_19,19,3HQUKB7LNG3YAWBKYTCGCP4KJ3KHH8,boxy torso,20649,tangram,close,tangram-48.jpg,tangram-187.jpg,survey-text,6,111662,adult,NA,NA,10,boxytorso
pilot2,adult_19,19,3HQUKB7LNG3YAWBKYTCGCP4KJ3KHH8,walking left,20729,tangram,close,A2.jpg,tangram-99.jpg,survey-text,7,132921,adult,NA,NA,12,walkleft
pilot2,adult_19,19,3HQUKB7LNG3YAWBKYTCGCP4KJ3KHH8,triangle torso,12312,tangram,close,tangram-90.jpg,tangram-81.jpg,survey-text,8,145763,adult,NA,NA,14,triangletorso
pilot2,adult_19,19,3HQUKB7LNG3YAWBKYTCGCP4KJ3KHH8,running figure,19094,tangram,close,tangram-67.jpg,tangram-32.jpg,survey-text,9,165373,adult,NA,NA,14,run
pilot2,adult_19,19,3HQUKB7LNG3YAWBKYTCGCP4KJ3KHH8,tilting left,17310,tangram,close,B1.jpg,P1.jpg,survey-text,10,183226,adult,NA,NA,12,tiltleft
pilot2,adult_19,19,3HQUKB7LNG3YAWBKYTCGCP4KJ3KHH8,kicking figure,9679,tangram,far,tangram-48.jpg,D1.jpg,survey-text,12,200786,adult,NA,NA,14,kick
pilot2,adult_19,19,3HQUKB7LNG3YAWBKYTCGCP4KJ3KHH8,walking left,11169,tangram,far,A2.jpg,C1.jpg,survey-text,13,212485,adult,NA,NA,12,walkleft
pilot2,adult_19,19,3HQUKB7LNG3YAWBKYTCGCP4KJ3KHH8,running figure,9733,tangram,far,tangram-55.jpg,tangram-143.jpg,survey-text,14,222757,adult,NA,NA,14,run
pilot2,adult_19,19,3HQUKB7LNG3YAWBKYTCGCP4KJ3KHH8,candle,9157,tangram,far,H1.jpg,tangram-8.jpg,survey-text,15,232437,adult,NA,NA,6,candle
pilot2,adult_19,19,3HQUKB7LNG3YAWBKYTCGCP4KJ3KHH8,running figure,10878,tangram,far,tangram-67.jpg,G1.jpg,survey-text,16,243842,adult,NA,NA,14,run
pilot2,adult_19,19,3HQUKB7LNG3YAWBKYTCGCP4KJ3KHH8,triangular torso,12792,tangram,far,tangram-90.jpg,tangram-120.jpg,survey-text,17,257187,adult,NA,NA,16,triangletorso
pilot2,adult_19,19,3HQUKB7LNG3YAWBKYTCGCP4KJ3KHH8,seated figure,8201,tangram,far,tangram-164.jpg,tangram-64.jpg,survey-text,18,265912,adult,NA,NA,13,seat
pilot2,adult_19,19,3HQUKB7LNG3YAWBKYTCGCP4KJ3KHH8,walking left,8549,tangram,far,B1.jpg,tangram-4.jpg,survey-text,19,275010,adult,NA,NA,12,walkleft
pilot2,adult_19,19,3HQUKB7LNG3YAWBKYTCGCP4KJ3KHH8,boxy torso,13099,tangram,isolated,tangram-48.jpg,tangram-187.jpg,survey-text,21,294345,adult,NA,NA,10,boxytorso
pilot2,adult_19,19,3HQUKB7LNG3YAWBKYTCGCP4KJ3KHH8,candle,20464,tangram,isolated,H1.jpg,I1.jpg,survey-text,22,315347,adult,NA,NA,6,candle
pilot2,adult_19,19,3HQUKB7LNG3YAWBKYTCGCP4KJ3KHH8,running figure,9136,tangram,isolated,tangram-67.jpg,tangram-32.jpg,survey-text,23,325016,adult,NA,NA,14,run
pilot2,adult_19,19,3HQUKB7LNG3YAWBKYTCGCP4KJ3KHH8,walking left,10966,tangram,isolated,A2.jpg,tangram-99.jpg,survey-text,24,336513,adult,NA,NA,12,walkleft
pilot2,adult_19,19,3HQUKB7LNG3YAWBKYTCGCP4KJ3KHH8,seated figure,15022,tangram,isolated,tangram-164.jpg,tangram-183.jpg,survey-text,25,352057,adult,NA,NA,13,seat
pilot2,adult_19,19,3HQUKB7LNG3YAWBKYTCGCP4KJ3KHH8,triangular torso,11895,tangram,isolated,tangram-90.jpg,tangram-81.jpg,survey-text,26,364490,adult,NA,NA,16,triangletorso
pilot2,adult_19,19,3HQUKB7LNG3YAWBKYTCGCP4KJ3KHH8,running right,10364,tangram,isolated,tangram-55.jpg,N1.jpg,survey-text,27,375388,adult,NA,NA,13,runright
pilot2,adult_19,19,3HQUKB7LNG3YAWBKYTCGCP4KJ3KHH8,walking left,7896,tangram,isolated,B1.jpg,P1.jpg,survey-text,28,383817,adult,NA,NA,12,walkleft
pilot2,adult_19,19,3HQUKB7LNG3YAWBKYTCGCP4KJ3KHH8,table,10060,familiar,close,diningtable.jpg,picnictable.jpg,survey-text,30,401519,adult,NA,NA,5,table
pilot2,adult_19,19,3HQUKB7LNG3YAWBKYTCGCP4KJ3KHH8,small bird,9105,familiar,close,sparrow.jpg,eagle.jpg,survey-text,31,411156,adult,NA,NA,10,smallbird
pilot2,adult_19,19,3HQUKB7LNG3YAWBKYTCGCP4KJ3KHH8,m m,13352,familiar,close,mnms.jpg,gummybears.jpg,survey-text,32,425047,adult,NA,NA,3,mnms
pilot2,adult_19,19,3HQUKB7LNG3YAWBKYTCGCP4KJ3KHH8,blue,10741,familiar,close,sedan.jpg,sportscar.jpg,survey-text,33,436318,adult,NA,NA,4,blue
pilot2,adult_19,19,3HQUKB7LNG3YAWBKYTCGCP4KJ3KHH8,german shepherd,47094,familiar,close,germanshepherd.jpg,pug.jpg,survey-text,34,483958,adult,NA,NA,15,germanshepherd
pilot2,adult_19,19,3HQUKB7LNG3YAWBKYTCGCP4KJ3KHH8,goldfish,5701,familiar,close,goldfish.jpg,swordfish.jpg,survey-text,35,490177,adult,NA,NA,8,goldfish
pilot2,adult_19,19,3HQUKB7LNG3YAWBKYTCGCP4KJ3KHH8,grizzly,5286,familiar,close,grizzlybear.jpg,polarbear.jpg,survey-text,36,496001,adult,NA,NA,7,grizzly
pilot2,adult_19,19,3HQUKB7LNG3YAWBKYTCGCP4KJ3KHH8,plain blue,6797,familiar,close,poloshirt.jpg,hawaiishirt.jpg,survey-text,37,503327,adult,NA,NA,10,plainblue
pilot2,adult_19,19,3HQUKB7LNG3YAWBKYTCGCP4KJ3KHH8,grizzly,6064,familiar,isolated,grizzlybear.jpg,polarbear.jpg,survey-text,39,719415,adult,NA,NA,7,grizzly
pilot2,adult_19,19,3HQUKB7LNG3YAWBKYTCGCP4KJ3KHH8,german shepherd,10628,familiar,isolated,germanshepherd.jpg,pug.jpg,survey-text,40,730569,adult,NA,NA,15,germanshepherd
pilot2,adult_19,19,3HQUKB7LNG3YAWBKYTCGCP4KJ3KHH8,m m,5520,familiar,isolated,mnms.jpg,gummybears.jpg,survey-text,41,736631,adult,NA,NA,3,mnms
pilot2,adult_19,19,3HQUKB7LNG3YAWBKYTCGCP4KJ3KHH8,small bird,8528,familiar,isolated,sparrow.jpg,eagle.jpg,survey-text,42,745696,adult,NA,NA,10,smallbird
pilot2,adult_19,19,3HQUKB7LNG3YAWBKYTCGCP4KJ3KHH8,table,11868,familiar,isolated,diningtable.jpg,picnictable.jpg,survey-text,43,758100,adult,NA,NA,5,table
pilot2,adult_19,19,3HQUKB7LNG3YAWBKYTCGCP4KJ3KHH8,blue shirt,5882,familiar,isolated,poloshirt.jpg,hawaiishirt.jpg,survey-text,44,764505,adult,NA,NA,10,blueshirt
pilot2,adult_19,19,3HQUKB7LNG3YAWBKYTCGCP4KJ3KHH8,blue car,5287,familiar,isolated,sedan.jpg,sportscar.jpg,survey-text,45,770325,adult,NA,NA,8,bluecar
pilot2,adult_19,19,3HQUKB7LNG3YAWBKYTCGCP4KJ3KHH8,goldfish,7831,familiar,isolated,goldfish.jpg,swordfish.jpg,survey-text,46,778678,adult,NA,NA,8,goldfish
pilot2,adult_19,19,3HQUKB7LNG3YAWBKYTCGCP4KJ3KHH8,grizzly,9130,familiar,far,grizzlybear.jpg,lion.jpg,survey-text,48,797593,adult,NA,NA,7,grizzly
pilot2,adult_19,19,3HQUKB7LNG3YAWBKYTCGCP4KJ3KHH8,goldfish,7091,familiar,far,goldfish.jpg,iguana.jpg,survey-text,49,805221,adult,NA,NA,8,goldfish
pilot2,adult_19,19,3HQUKB7LNG3YAWBKYTCGCP4KJ3KHH8,table,7501,familiar,far,diningtable.jpg,wardrobe.jpg,survey-text,50,813246,adult,NA,NA,5,table
pilot2,adult_19,19,3HQUKB7LNG3YAWBKYTCGCP4KJ3KHH8,car,9587,familiar,far,sedan.jpg,firetruck.jpg,survey-text,51,823372,adult,NA,NA,3,car
pilot2,adult_19,19,3HQUKB7LNG3YAWBKYTCGCP4KJ3KHH8,bird,5083,familiar,far,sparrow.jpg,squirrel.jpg,survey-text,52,829003,adult,NA,NA,4,bird
pilot2,adult_19,19,3HQUKB7LNG3YAWBKYTCGCP4KJ3KHH8,dog,4494,familiar,far,germanshepherd.jpg,cow.jpg,survey-text,53,834024,adult,NA,NA,3,dog
pilot2,adult_19,19,3HQUKB7LNG3YAWBKYTCGCP4KJ3KHH8,candy,4598,familiar,far,mnms.jpg,pretzels.jpg,survey-text,54,839150,adult,NA,NA,5,candy
pilot2,adult_19,19,3HQUKB7LNG3YAWBKYTCGCP4KJ3KHH8,shirt,5501,familiar,far,poloshirt.jpg,dress.jpg,survey-text,55,845191,adult,NA,NA,5,shirt
pilot2,adult_20,20,3WAKVUDHUX56MTBSLJX34R4GZ7RU7J,person marching,13186.105,tangram,isolated,tangram-48.jpg,tangram-187.jpg,survey-text,3,32607,adult,NA,NA,15,march
pilot2,adult_20,20,3WAKVUDHUX56MTBSLJX34R4GZ7RU7J,person running,5673.9,tangram,isolated,tangram-67.jpg,tangram-32.jpg,survey-text,4,38784,adult,NA,NA,14,run
pilot2,adult_20,20,3WAKVUDHUX56MTBSLJX34R4GZ7RU7J,person walking,5107.66,tangram,isolated,tangram-90.jpg,tangram-81.jpg,survey-text,5,44394,adult,NA,NA,14,walk
pilot2,adult_20,20,3WAKVUDHUX56MTBSLJX34R4GZ7RU7J,person walking,5550.06,tangram,isolated,A2.jpg,tangram-99.jpg,survey-text,6,50446,adult,NA,NA,14,walk
pilot2,adult_20,20,3WAKVUDHUX56MTBSLJX34R4GZ7RU7J,person walking,9061.01,tangram,isolated,B1.jpg,P1.jpg,survey-text,7,60009,adult,NA,NA,14,walk
pilot2,adult_20,20,3WAKVUDHUX56MTBSLJX34R4GZ7RU7J,person reading,5639.68,tangram,isolated,H1.jpg,I1.jpg,survey-text,8,66152,adult,NA,NA,14,read
pilot2,adult_20,20,3WAKVUDHUX56MTBSLJX34R4GZ7RU7J,person sitting,4894.36,tangram,isolated,tangram-164.jpg,tangram-183.jpg,survey-text,9,71548,adult,NA,NA,14,sit
pilot2,adult_20,20,3WAKVUDHUX56MTBSLJX34R4GZ7RU7J,person sprinting,4390.17,tangram,isolated,tangram-55.jpg,N1.jpg,survey-text,10,76441,adult,NA,NA,16,sprint
pilot2,adult_20,20,3WAKVUDHUX56MTBSLJX34R4GZ7RU7J,person walking,6712.885,tangram,far,A2.jpg,C1.jpg,survey-text,12,91303,adult,NA,NA,14,walk
pilot2,adult_20,20,3WAKVUDHUX56MTBSLJX34R4GZ7RU7J,person reading,5498.99,tangram,far,H1.jpg,tangram-8.jpg,survey-text,13,97305,adult,NA,NA,14,read
pilot2,adult_20,20,3WAKVUDHUX56MTBSLJX34R4GZ7RU7J,person walking,10448.005,tangram,far,B1.jpg,tangram-4.jpg,survey-text,14,108255,adult,NA,NA,14,walk
pilot2,adult_20,20,3WAKVUDHUX56MTBSLJX34R4GZ7RU7J,person marching,5703.85,tangram,far,tangram-48.jpg,D1.jpg,survey-text,15,114462,adult,NA,NA,15,march
pilot2,adult_20,20,3WAKVUDHUX56MTBSLJX34R4GZ7RU7J,person running,5958.575,tangram,far,tangram-67.jpg,G1.jpg,survey-text,16,120923,adult,NA,NA,14,run
pilot2,adult_20,20,3WAKVUDHUX56MTBSLJX34R4GZ7RU7J,person walking,5020.515,tangram,far,tangram-90.jpg,tangram-120.jpg,survey-text,17,126446,adult,NA,NA,14,walk
pilot2,adult_20,20,3WAKVUDHUX56MTBSLJX34R4GZ7RU7J,person sprinting,5488.605,tangram,far,tangram-55.jpg,tangram-143.jpg,survey-text,18,132438,adult,NA,NA,16,sprint
pilot2,adult_20,20,3WAKVUDHUX56MTBSLJX34R4GZ7RU7J,person sitting,4259.415,tangram,far,tangram-164.jpg,tangram-64.jpg,survey-text,19,137200,adult,NA,NA,14,sit
pilot2,adult_20,20,3WAKVUDHUX56MTBSLJX34R4GZ7RU7J,high sitting,14427.715,tangram,close,tangram-164.jpg,tangram-183.jpg,survey-text,21,154867,adult,NA,NA,12,highsit
pilot2,adult_20,20,3WAKVUDHUX56MTBSLJX34R4GZ7RU7J,sad walking,4033.29,tangram,close,B1.jpg,P1.jpg,survey-text,22,159403,adult,NA,NA,11,sadwalk
pilot2,adult_20,20,3WAKVUDHUX56MTBSLJX34R4GZ7RU7J,triangle walking,12832.71,tangram,close,tangram-90.jpg,tangram-81.jpg,survey-text,23,172738,adult,NA,NA,16,trianglewalk
pilot2,adult_20,20,3WAKVUDHUX56MTBSLJX34R4GZ7RU7J,square marching,12930.415,tangram,close,tangram-48.jpg,tangram-187.jpg,survey-text,24,186171,adult,NA,NA,15,squaremarch
pilot2,adult_20,20,3WAKVUDHUX56MTBSLJX34R4GZ7RU7J,long stride,6012.475,tangram,close,tangram-67.jpg,tangram-32.jpg,survey-text,25,192687,adult,NA,NA,11,longstride
pilot2,adult_20,20,3WAKVUDHUX56MTBSLJX34R4GZ7RU7J,standing straight,12466.69,tangram,close,H1.jpg,I1.jpg,survey-text,26,205658,adult,NA,NA,17,standstraight
pilot2,adult_20,20,3WAKVUDHUX56MTBSLJX34R4GZ7RU7J,legs bent,13611.9,tangram,close,tangram-55.jpg,N1.jpg,survey-text,27,219773,adult,NA,NA,9,legbend
pilot2,adult_20,20,3WAKVUDHUX56MTBSLJX34R4GZ7RU7J,walking left,18842.96,tangram,close,A2.jpg,tangram-99.jpg,survey-text,28,239119,adult,NA,NA,12,walkleft
pilot2,adult_20,20,3WAKVUDHUX56MTBSLJX34R4GZ7RU7J,small bird,13675.56,familiar,close,sparrow.jpg,eagle.jpg,survey-text,30,255741,adult,NA,NA,10,smallbird
pilot2,adult_20,20,3WAKVUDHUX56MTBSLJX34R4GZ7RU7J,kitchen table,5866.675,familiar,close,diningtable.jpg,picnictable.jpg,survey-text,31,262109,adult,NA,NA,13,kitchentable
pilot2,adult_20,20,3WAKVUDHUX56MTBSLJX34R4GZ7RU7J,gold fish,4154.525,familiar,close,goldfish.jpg,swordfish.jpg,survey-text,32,266766,adult,NA,NA,9,goldfish
pilot2,adult_20,20,3WAKVUDHUX56MTBSLJX34R4GZ7RU7J,polo shirt,5734.345,familiar,close,poloshirt.jpg,hawaiishirt.jpg,survey-text,33,273004,adult,NA,NA,10,poloshirt
pilot2,adult_20,20,3WAKVUDHUX56MTBSLJX34R4GZ7RU7J,brown bear,5742.085,familiar,close,grizzlybear.jpg,polarbear.jpg,survey-text,34,279249,adult,NA,NA,10,brownbear
pilot2,adult_20,20,3WAKVUDHUX56MTBSLJX34R4GZ7RU7J,m&m,10804.78,familiar,close,mnms.jpg,gummybears.jpg,survey-text,35,290558,adult,NA,NA,3,mnms
pilot2,adult_20,20,3WAKVUDHUX56MTBSLJX34R4GZ7RU7J,blue car,3598.21,familiar,close,sedan.jpg,sportscar.jpg,survey-text,36,294658,adult,NA,NA,8,bluecar
pilot2,adult_20,20,3WAKVUDHUX56MTBSLJX34R4GZ7RU7J,german shepherd,16845.185,familiar,close,germanshepherd.jpg,pug.jpg,survey-text,37,312006,adult,NA,NA,15,germanshepherd
pilot2,adult_20,20,3WAKVUDHUX56MTBSLJX34R4GZ7RU7J,blue polo,4606.79,familiar,isolated,poloshirt.jpg,hawaiishirt.jpg,survey-text,39,320384,adult,NA,NA,9,bluepolo
