iterationName,id,wID,aID,utterance,rt,target_type,competitor_type,target,foil,trial_type,trial_index,time_elapsed,age_group,age,button_pressed,utt_length,clean_utt
pilot2,adult_1,1,3CFJTT4SXUF1D2GSR28PLOG55D4I71,blue shirt,8417.695000011008,familiar,isolated,poloshirt.jpg,hawaiishirt.jpg,survey-text,3,41912,adult,NA,NA,10,blueshirt
pilot2,adult_1,1,3CFJTT4SXUF1D2GSR28PLOG55D4I71,bear,4069.310000020778,familiar,isolated,grizzlybear.jpg,polarbear.jpg,survey-text,4,46484,adult,NA,NA,4,bear
pilot2,adult_1,1,3CFJTT4SXUF1D2GSR28PLOG55D4I71,table,5345.834999985527,familiar,isolated,diningtable.jpg,picnictable.jpg,survey-text,5,52340,adult,NA,NA,5,table
pilot2,adult_1,1,3CFJTT4SXUF1D2GSR28PLOG55D4I71,german shepard,7552.990000025602,familiar,isolated,germanshepherd.jpg,pug.jpg,survey-text,6,60410,adult,NA,NA,14,germanshepard
pilot2,adult_1,1,3CFJTT4SXUF1D2GSR28PLOG55D4I71,bird,3847.964999993565,familiar,isolated,sparrow.jpg,eagle.jpg,survey-text,7,64759,adult,NA,NA,4,bird
pilot2,adult_1,1,3CFJTT4SXUF1D2GSR28PLOG55D4I71,candy,4228.040000016335,familiar,isolated,mnms.jpg,gummybears.jpg,survey-text,8,69489,adult,NA,NA,5,candy
pilot2,adult_1,1,3CFJTT4SXUF1D2GSR28PLOG55D4I71,goldfish,5104.135000001406,familiar,isolated,goldfish.jpg,swordfish.jpg,survey-text,9,75095,adult,NA,NA,8,goldfish
pilot2,adult_1,1,3CFJTT4SXUF1D2GSR28PLOG55D4I71,sedan,8618.155000003753,familiar,isolated,sedan.jpg,sportscar.jpg,survey-text,10,84215,adult,NA,NA,5,sedan
pilot2,adult_1,1,3CFJTT4SXUF1D2GSR28PLOG55D4I71,kicking,7656.719999999041,tangram,far,tangram-48.jpg,D1.jpg,survey-text,12,100567,adult,NA,NA,7,kick
pilot2,adult_1,1,3CFJTT4SXUF1D2GSR28PLOG55D4I71,high kick,8973.529999988386,tangram,far,tangram-164.jpg,tangram-64.jpg,survey-text,13,110044,adult,NA,NA,9,highkick
pilot2,adult_1,1,3CFJTT4SXUF1D2GSR28PLOG55D4I71,triangle dance,12892.59000000311,tangram,far,tangram-90.jpg,tangram-120.jpg,survey-text,14,123440,adult,NA,NA,14,triangledance
pilot2,adult_1,1,3CFJTT4SXUF1D2GSR28PLOG55D4I71,beggar,8926.529999997001,tangram,far,H1.jpg,tangram-8.jpg,survey-text,15,132870,adult,NA,NA,6,beggar
pilot2,adult_1,1,3CFJTT4SXUF1D2GSR28PLOG55D4I71,overhead throw,11590.820000012172,tangram,far,A2.jpg,C1.jpg,survey-text,16,144968,adult,NA,NA,14,overheadthrow
pilot2,adult_1,1,3CFJTT4SXUF1D2GSR28PLOG55D4I71,sneaky sprint,7184.650000010151,tangram,far,tangram-55.jpg,tangram-143.jpg,survey-text,17,152655,adult,NA,NA,13,sneakysprint
pilot2,adult_1,1,3CFJTT4SXUF1D2GSR28PLOG55D4I71,dejected walk,7025.660000013886,tangram,far,B1.jpg,tangram-4.jpg,survey-text,18,160183,adult,NA,NA,13,dejectwalk
pilot2,adult_1,1,3CFJTT4SXUF1D2GSR28PLOG55D4I71,triangle sprinting,16845.984999992652,tangram,far,tangram-67.jpg,G1.jpg,survey-text,19,177531,adult,NA,NA,18,trianglesprint
pilot2,adult_1,1,3CFJTT4SXUF1D2GSR28PLOG55D4I71,blue polo,7947.950000001583,familiar,close,poloshirt.jpg,hawaiishirt.jpg,survey-text,21,192201,adult,NA,NA,9,bluepolo
pilot2,adult_1,1,3CFJTT4SXUF1D2GSR28PLOG55D4I71,blue sedan,5616.970000002766,familiar,close,sedan.jpg,sportscar.jpg,survey-text,22,198323,adult,NA,NA,10,bluesedan
pilot2,adult_1,1,3CFJTT4SXUF1D2GSR28PLOG55D4I71,brown bear,5187.514999997802,familiar,close,grizzlybear.jpg,polarbear.jpg,survey-text,23,204013,adult,NA,NA,10,brownbear
pilot2,adult_1,1,3CFJTT4SXUF1D2GSR28PLOG55D4I71,coated candies,11335.445000004256,familiar,close,mnms.jpg,gummybears.jpg,survey-text,24,215854,adult,NA,NA,14,coatcandy
pilot2,adult_1,1,3CFJTT4SXUF1D2GSR28PLOG55D4I71,small bird,6308.450000011362,familiar,close,sparrow.jpg,eagle.jpg,survey-text,25,222674,adult,NA,NA,10,smallbird
pilot2,adult_1,1,3CFJTT4SXUF1D2GSR28PLOG55D4I71,wide table,6811.959999991814,familiar,close,diningtable.jpg,picnictable.jpg,survey-text,26,229989,adult,NA,NA,10,widetable
pilot2,adult_1,1,3CFJTT4SXUF1D2GSR28PLOG55D4I71,german shepard,6088.600000017323,familiar,close,germanshepherd.jpg,pug.jpg,survey-text,27,236580,adult,NA,NA,14,germanshepard
pilot2,adult_1,1,3CFJTT4SXUF1D2GSR28PLOG55D4I71,goldfish,4066.544999979669,familiar,close,goldfish.jpg,swordfish.jpg,survey-text,28,241149,adult,NA,NA,8,goldfish
pilot2,adult_1,1,3CFJTT4SXUF1D2GSR28PLOG55D4I71,german shepard,5146.015000005718,familiar,far,germanshepherd.jpg,cow.jpg,survey-text,30,249839,adult,NA,NA,14,germanshepard
pilot2,adult_1,1,3CFJTT4SXUF1D2GSR28PLOG55D4I71,coated candies,4435.72999999742,familiar,far,mnms.jpg,pretzels.jpg,survey-text,31,254782,adult,NA,NA,14,coatcandy
pilot2,adult_1,1,3CFJTT4SXUF1D2GSR28PLOG55D4I71,wide table,4521.024999994552,familiar,far,diningtable.jpg,wardrobe.jpg,survey-text,32,259805,adult,NA,NA,10,widetable
pilot2,adult_1,1,3CFJTT4SXUF1D2GSR28PLOG55D4I71,brown bear,4178.0000000144355,familiar,far,grizzlybear.jpg,lion.jpg,survey-text,33,264492,adult,NA,NA,10,brownbear
pilot2,adult_1,1,3CFJTT4SXUF1D2GSR28PLOG55D4I71,goldfish,2415.47000000719,familiar,far,goldfish.jpg,iguana.jpg,survey-text,34,267410,adult,NA,NA,8,goldfish
pilot2,adult_1,1,3CFJTT4SXUF1D2GSR28PLOG55D4I71,blue sedan,6299.794999998994,familiar,far,sedan.jpg,firetruck.jpg,survey-text,35,274214,adult,NA,NA,10,bluesedan
pilot2,adult_1,1,3CFJTT4SXUF1D2GSR28PLOG55D4I71,blue polo,5251.17499998305,familiar,far,poloshirt.jpg,dress.jpg,survey-text,36,279968,adult,NA,NA,9,bluepolo
pilot2,adult_1,1,3CFJTT4SXUF1D2GSR28PLOG55D4I71,small bird,3031.84500001953,familiar,far,sparrow.jpg,squirrel.jpg,survey-text,37,283510,adult,NA,NA,10,smallbird
pilot2,adult_1,1,3CFJTT4SXUF1D2GSR28PLOG55D4I71,sneaky sprint,5533.114999998361,tangram,isolated,tangram-55.jpg,N1.jpg,survey-text,39,292614,adult,NA,NA,13,sneakysprint
pilot2,adult_1,1,3CFJTT4SXUF1D2GSR28PLOG55D4I71,squat kick,19770.909999992,tangram,isolated,tangram-164.jpg,tangram-183.jpg,survey-text,40,312894,adult,NA,NA,10,squatkick
pilot2,adult_1,1,3CFJTT4SXUF1D2GSR28PLOG55D4I71,overhead throw,4076.735000009649,tangram,isolated,A2.jpg,tangram-99.jpg,survey-text,41,317473,adult,NA,NA,14,overheadthrow
pilot2,adult_1,1,3CFJTT4SXUF1D2GSR28PLOG55D4I71,triangle sprinting,6154.804999998305,tangram,isolated,tangram-67.jpg,tangram-32.jpg,survey-text,42,324131,adult,NA,NA,18,trianglesprint
pilot2,adult_1,1,3CFJTT4SXUF1D2GSR28PLOG55D4I71,dejected walk,2250.260000000708,tangram,isolated,B1.jpg,P1.jpg,survey-text,43,326883,adult,NA,NA,13,dejectwalk
pilot2,adult_1,1,3CFJTT4SXUF1D2GSR28PLOG55D4I71,triangle walking,20119.2700000247,tangram,isolated,tangram-90.jpg,tangram-81.jpg,survey-text,44,347506,adult,NA,NA,16,trianglewalk
pilot2,adult_1,1,3CFJTT4SXUF1D2GSR28PLOG55D4I71,horizontal kick,10510.91000001179,tangram,isolated,tangram-48.jpg,tangram-187.jpg,survey-text,45,358522,adult,NA,NA,15,horizontalkick
pilot2,adult_1,1,3CFJTT4SXUF1D2GSR28PLOG55D4I71,beggar,5826.700000005076,tangram,isolated,H1.jpg,I1.jpg,survey-text,46,364852,adult,NA,NA,6,beggar
pilot2,adult_1,1,3CFJTT4SXUF1D2GSR28PLOG55D4I71,triangle walking,6207.124999986263,tangram,close,tangram-90.jpg,tangram-81.jpg,survey-text,48,376555,adult,NA,NA,16,trianglewalk
pilot2,adult_1,1,3CFJTT4SXUF1D2GSR28PLOG55D4I71,triangle sprinting,10402.430000016466,tangram,close,tangram-67.jpg,tangram-32.jpg,survey-text,49,387465,adult,NA,NA,18,trianglesprint
pilot2,adult_1,1,3CFJTT4SXUF1D2GSR28PLOG55D4I71,horizontal kick,6297.135000000708,tangram,close,tangram-48.jpg,tangram-187.jpg,survey-text,50,394272,adult,NA,NA,15,horizontalkick
pilot2,adult_1,1,3CFJTT4SXUF1D2GSR28PLOG55D4I71,beggar,4920.604999992065,tangram,close,H1.jpg,I1.jpg,survey-text,51,399703,adult,NA,NA,6,beggar
pilot2,adult_1,1,3CFJTT4SXUF1D2GSR28PLOG55D4I71,overhead throw,4306.964999996126,tangram,close,A2.jpg,tangram-99.jpg,survey-text,52,404513,adult,NA,NA,14,overheadthrow
pilot2,adult_1,1,3CFJTT4SXUF1D2GSR28PLOG55D4I71,dejected walk,4674.920000019483,tangram,close,B1.jpg,P1.jpg,survey-text,53,409690,adult,NA,NA,13,dejectwalk
pilot2,adult_1,1,3CFJTT4SXUF1D2GSR28PLOG55D4I71,sneaky sprint,4420.595000003232,tangram,close,tangram-55.jpg,N1.jpg,survey-text,54,414613,adult,NA,NA,13,sneakysprint
pilot2,adult_1,1,3CFJTT4SXUF1D2GSR28PLOG55D4I71,horizontal kick,6414.814999996452,tangram,close,tangram-164.jpg,tangram-183.jpg,survey-text,55,421545,adult,NA,NA,15,horizontalkick
pilot2,adult_2,2,3TAYZSBPLMXJLFMIQ2L8TZ5K3082SV,golden fish,5702.460000058636,familiar,close,goldfish.jpg,swordfish.jpg,survey-text,3,23047,adult,NA,NA,11,goldenfish
pilot2,adult_2,2,3TAYZSBPLMXJLFMIQ2L8TZ5K3082SV,plain t shirt,7215.349999954924,familiar,close,poloshirt.jpg,hawaiishirt.jpg,survey-text,4,30779,adult,NA,NA,13,plaintshirt
pilot2,adult_2,2,3TAYZSBPLMXJLFMIQ2L8TZ5K3082SV,blue car,8118.795000016689,familiar,close,sedan.jpg,sportscar.jpg,survey-text,5,39423,adult,NA,NA,8,bluecar
pilot2,adult_2,2,3TAYZSBPLMXJLFMIQ2L8TZ5K3082SV,german shephard,5192.174999974668,familiar,close,germanshepherd.jpg,pug.jpg,survey-text,6,45127,adult,NA,NA,15,germanshephard
pilot2,adult_2,2,3TAYZSBPLMXJLFMIQ2L8TZ5K3082SV,mnms,3622.294999891892,familiar,close,mnms.jpg,gummybears.jpg,survey-text,7,49264,adult,NA,NA,4,mnms
pilot2,adult_2,2,3TAYZSBPLMXJLFMIQ2L8TZ5K3082SV,wild bear,7117.799999890849,familiar,close,grizzlybear.jpg,polarbear.jpg,survey-text,8,56896,adult,NA,NA,9,wildbear
pilot2,adult_2,2,3TAYZSBPLMXJLFMIQ2L8TZ5K3082SV,pigeon,9273.655000142751,familiar,close,sparrow.jpg,eagle.jpg,survey-text,9,66683,adult,NA,NA,6,pigeon
pilot2,adult_2,2,3TAYZSBPLMXJLFMIQ2L8TZ5K3082SV,table,4445.869999937713,familiar,close,diningtable.jpg,picnictable.jpg,survey-text,10,71644,adult,NA,NA,5,table
pilot2,adult_2,2,3TAYZSBPLMXJLFMIQ2L8TZ5K3082SV,bird,3285.0150000303984,familiar,far,sparrow.jpg,squirrel.jpg,survey-text,12,78254,adult,NA,NA,4,bird
pilot2,adult_2,2,3TAYZSBPLMXJLFMIQ2L8TZ5K3082SV,dog,2850.560000166297,familiar,far,germanshepherd.jpg,cow.jpg,survey-text,13,81617,adult,NA,NA,3,dog
pilot2,adult_2,2,3TAYZSBPLMXJLFMIQ2L8TZ5K3082SV,mnms,3000.6150000263005,familiar,far,mnms.jpg,pretzels.jpg,survey-text,14,85130,adult,NA,NA,4,mnms
pilot2,adult_2,2,3TAYZSBPLMXJLFMIQ2L8TZ5K3082SV,table,2998.20000003092,familiar,far,diningtable.jpg,wardrobe.jpg,survey-text,15,88646,adult,NA,NA,5,table
pilot2,adult_2,2,3TAYZSBPLMXJLFMIQ2L8TZ5K3082SV,men tshirt,4522.299999836832,familiar,far,poloshirt.jpg,dress.jpg,survey-text,16,93690,adult,NA,NA,10,mantshirt
pilot2,adult_2,2,3TAYZSBPLMXJLFMIQ2L8TZ5K3082SV,car,3321.07499986887,familiar,far,sedan.jpg,firetruck.jpg,survey-text,17,97543,adult,NA,NA,3,car
pilot2,adult_2,2,3TAYZSBPLMXJLFMIQ2L8TZ5K3082SV,bear,3108.4449999034405,familiar,far,grizzlybear.jpg,lion.jpg,survey-text,18,101176,adult,NA,NA,4,bear
pilot2,adult_2,2,3TAYZSBPLMXJLFMIQ2L8TZ5K3082SV,fish,3265.389999840409,familiar,far,goldfish.jpg,iguana.jpg,survey-text,19,104956,adult,NA,NA,4,fish
pilot2,adult_2,2,3TAYZSBPLMXJLFMIQ2L8TZ5K3082SV,mnms,2594.93500017561,familiar,isolated,mnms.jpg,gummybears.jpg,survey-text,21,111385,adult,NA,NA,4,mnms
pilot2,adult_2,2,3TAYZSBPLMXJLFMIQ2L8TZ5K3082SV,dog,2299.7999999206513,familiar,isolated,germanshepherd.jpg,pug.jpg,survey-text,22,114215,adult,NA,NA,3,dog
pilot2,adult_2,2,3TAYZSBPLMXJLFMIQ2L8TZ5K3082SV,tshirt,5813.619999913499,familiar,isolated,poloshirt.jpg,hawaiishirt.jpg,survey-text,23,120541,adult,NA,NA,6,tshirt
pilot2,adult_2,2,3TAYZSBPLMXJLFMIQ2L8TZ5K3082SV,table,3719.2949999589473,familiar,isolated,diningtable.jpg,picnictable.jpg,survey-text,24,124777,adult,NA,NA,5,table
pilot2,adult_2,2,3TAYZSBPLMXJLFMIQ2L8TZ5K3082SV,car,1886.255000019446,familiar,isolated,sedan.jpg,sportscar.jpg,survey-text,25,127176,adult,NA,NA,3,car
pilot2,adult_2,2,3TAYZSBPLMXJLFMIQ2L8TZ5K3082SV,fish,2516.095000086352,familiar,isolated,goldfish.jpg,swordfish.jpg,survey-text,26,130216,adult,NA,NA,4,fish
pilot2,adult_2,2,3TAYZSBPLMXJLFMIQ2L8TZ5K3082SV,bear,2570.744999917224,familiar,isolated,grizzlybear.jpg,polarbear.jpg,survey-text,27,133297,adult,NA,NA,4,bear
pilot2,adult_2,2,3TAYZSBPLMXJLFMIQ2L8TZ5K3082SV,bird,2577.724999981001,familiar,isolated,sparrow.jpg,eagle.jpg,survey-text,28,136396,adult,NA,NA,4,bird
pilot2,adult_2,2,3TAYZSBPLMXJLFMIQ2L8TZ5K3082SV,walking,2338.24499999173,tangram,close,B1.jpg,P1.jpg,survey-text,30,141757,adult,NA,NA,7,walk
pilot2,adult_2,2,3TAYZSBPLMXJLFMIQ2L8TZ5K3082SV,rnning,2027.1499999798832,tangram,close,tangram-55.jpg,N1.jpg,survey-text,31,144296,adult,NA,NA,6,rnning
pilot2,adult_2,2,3TAYZSBPLMXJLFMIQ2L8TZ5K3082SV,jaywalking,7393.669999903068,tangram,close,tangram-48.jpg,tangram-187.jpg,survey-text,32,152216,adult,NA,NA,10,jaywalking
pilot2,adult_2,2,3TAYZSBPLMXJLFMIQ2L8TZ5K3082SV,holding pot,5116.820000112057,tangram,close,H1.jpg,I1.jpg,survey-text,33,157846,adult,NA,NA,11,holdpot
pilot2,adult_2,2,3TAYZSBPLMXJLFMIQ2L8TZ5K3082SV,falling,4146.7999999877065,tangram,close,tangram-164.jpg,tangram-183.jpg,survey-text,34,162511,adult,NA,NA,7,fall
pilot2,adult_2,2,3TAYZSBPLMXJLFMIQ2L8TZ5K3082SV,running,5012.845000019297,tangram,close,tangram-67.jpg,tangram-32.jpg,survey-text,35,168036,adult,NA,NA,7,run
pilot2,adult_2,2,3TAYZSBPLMXJLFMIQ2L8TZ5K3082SV,walking backwards,3723.1900000479072,tangram,close,A2.jpg,tangram-99.jpg,survey-text,36,172277,adult,NA,NA,17,walkbackwards
pilot2,adult_2,2,3TAYZSBPLMXJLFMIQ2L8TZ5K3082SV,walking fast,4954.810000024736,tangram,close,tangram-90.jpg,tangram-81.jpg,survey-text,37,177753,adult,NA,NA,12,walkfast
pilot2,adult_2,2,3TAYZSBPLMXJLFMIQ2L8TZ5K3082SV,running,2852.500000037253,tangram,isolated,tangram-55.jpg,N1.jpg,survey-text,39,183478,adult,NA,NA,7,run
pilot2,adult_2,2,3TAYZSBPLMXJLFMIQ2L8TZ5K3082SV,walking back,3046.794999856502,tangram,isolated,A2.jpg,tangram-99.jpg,survey-text,40,187044,adult,NA,NA,12,walkback
pilot2,adult_2,2,3TAYZSBPLMXJLFMIQ2L8TZ5K3082SV,walking slow,3509.3749999068677,tangram,isolated,B1.jpg,P1.jpg,survey-text,41,191079,adult,NA,NA,12,walkslow
pilot2,adult_2,2,3TAYZSBPLMXJLFMIQ2L8TZ5K3082SV,falling,2806.63500004448,tangram,isolated,tangram-164.jpg,tangram-183.jpg,survey-text,42,194398,adult,NA,NA,7,fall
pilot2,adult_2,2,3TAYZSBPLMXJLFMIQ2L8TZ5K3082SV,holding something,4185.689999954775,tangram,isolated,H1.jpg,I1.jpg,survey-text,43,199100,adult,NA,NA,17,holdsomething
pilot2,adult_2,2,3TAYZSBPLMXJLFMIQ2L8TZ5K3082SV,jaywalking,3965.779999969527,tangram,isolated,tangram-48.jpg,tangram-187.jpg,survey-text,44,203578,adult,NA,NA,10,jaywalking
pilot2,adult_2,2,3TAYZSBPLMXJLFMIQ2L8TZ5K3082SV,running slow,10077.519999817014,tangram,isolated,tangram-90.jpg,tangram-81.jpg,survey-text,45,214187,adult,NA,NA,12,runslow
pilot2,adult_2,2,3TAYZSBPLMXJLFMIQ2L8TZ5K3082SV,running,2185.245000058785,tangram,isolated,tangram-67.jpg,tangram-32.jpg,survey-text,46,216904,adult,NA,NA,7,run
pilot2,adult_2,2,3TAYZSBPLMXJLFMIQ2L8TZ5K3082SV,running,5933.595000067726,tangram,far,tangram-90.jpg,tangram-120.jpg,survey-text,48,225509,adult,NA,NA,7,run
pilot2,adult_2,2,3TAYZSBPLMXJLFMIQ2L8TZ5K3082SV,walking,4134.5850001089275,tangram,far,A2.jpg,C1.jpg,survey-text,49,230166,adult,NA,NA,7,walk
pilot2,adult_2,2,3TAYZSBPLMXJLFMIQ2L8TZ5K3082SV,walking,2649.5099999010563,tangram,far,tangram-48.jpg,D1.jpg,survey-text,50,233345,adult,NA,NA,7,walk
pilot2,adult_2,2,3TAYZSBPLMXJLFMIQ2L8TZ5K3082SV,runing,3767.130000051111,tangram,far,tangram-67.jpg,G1.jpg,survey-text,51,237639,adult,NA,NA,6,runing
pilot2,adult_2,2,3TAYZSBPLMXJLFMIQ2L8TZ5K3082SV,holding something,4019.645000109449,tangram,far,H1.jpg,tangram-8.jpg,survey-text,52,242179,adult,NA,NA,17,holdsomething
pilot2,adult_2,2,3TAYZSBPLMXJLFMIQ2L8TZ5K3082SV,falling,2916.139999870211,tangram,far,tangram-164.jpg,tangram-64.jpg,survey-text,53,245610,adult,NA,NA,7,fall
pilot2,adult_2,2,3TAYZSBPLMXJLFMIQ2L8TZ5K3082SV,walking,2292.420000070706,tangram,far,B1.jpg,tangram-4.jpg,survey-text,54,248424,adult,NA,NA,7,walk
pilot2,adult_2,2,3TAYZSBPLMXJLFMIQ2L8TZ5K3082SV,walking,2359.18499995023,tangram,far,tangram-55.jpg,tangram-143.jpg,survey-text,55,251304,adult,NA,NA,7,walk
pilot2,adult_4,4,3F6KKYWMNCQ98CSTFVO3QOMIDN1DN5,round colorful,14641.715000005206,familiar,close,mnms.jpg,gummybears.jpg,survey-text,3,90818,adult,NA,NA,14,roundcolorful
pilot2,adult_4,4,3F6KKYWMNCQ98CSTFVO3QOMIDN1DN5,four legs,11110.879999992903,familiar,close,germanshepherd.jpg,pug.jpg,survey-text,4,102444,adult,NA,NA,9,fourleg
pilot2,adult_4,4,3F6KKYWMNCQ98CSTFVO3QOMIDN1DN5,four doors,17270.034999994095,familiar,close,sedan.jpg,sportscar.jpg,survey-text,5,120225,adult,NA,NA,10,fourdoor
pilot2,adult_4,4,3F6KKYWMNCQ98CSTFVO3QOMIDN1DN5,brown beak,13823.24499997776,familiar,close,sparrow.jpg,eagle.jpg,survey-text,6,134560,adult,NA,NA,10,brownbeak
pilot2,adult_4,4,3F6KKYWMNCQ98CSTFVO3QOMIDN1DN5,plain collared,9140.619999991031,familiar,close,poloshirt.jpg,hawaiishirt.jpg,survey-text,7,144219,adult,NA,NA,14,plaincollar
pilot2,adult_4,4,3F6KKYWMNCQ98CSTFVO3QOMIDN1DN5,brown bear,10669.349999981932,familiar,close,grizzlybear.jpg,polarbear.jpg,survey-text,8,155400,adult,NA,NA,10,brownbear
pilot2,adult_4,4,3F6KKYWMNCQ98CSTFVO3QOMIDN1DN5,gold fish,7800.959999993211,familiar,close,goldfish.jpg,swordfish.jpg,survey-text,9,163715,adult,NA,NA,9,goldfish
pilot2,adult_4,4,3F6KKYWMNCQ98CSTFVO3QOMIDN1DN5,brown table,8906.740000005811,familiar,close,diningtable.jpg,picnictable.jpg,survey-text,10,173144,adult,NA,NA,11,browntable
pilot2,adult_4,4,3F6KKYWMNCQ98CSTFVO3QOMIDN1DN5,light blue,8339.319999999134,familiar,far,poloshirt.jpg,dress.jpg,survey-text,12,187366,adult,NA,NA,10,lightblue
pilot2,adult_4,4,3F6KKYWMNCQ98CSTFVO3QOMIDN1DN5,colorful,4210.2149999991525,familiar,far,mnms.jpg,pretzels.jpg,survey-text,13,192098,adult,NA,NA,8,colorful
pilot2,adult_4,4,3F6KKYWMNCQ98CSTFVO3QOMIDN1DN5,beak,2902.4249999783933,familiar,far,sparrow.jpg,squirrel.jpg,survey-text,14,195521,adult,NA,NA,4,beak
pilot2,adult_4,4,3F6KKYWMNCQ98CSTFVO3QOMIDN1DN5,orange fish,5519.1999999806285,familiar,far,goldfish.jpg,iguana.jpg,survey-text,15,201559,adult,NA,NA,11,orangefish
pilot2,adult_4,4,3F6KKYWMNCQ98CSTFVO3QOMIDN1DN5,four legs,4585.090000007767,familiar,far,diningtable.jpg,wardrobe.jpg,survey-text,16,206650,adult,NA,NA,9,fourleg
pilot2,adult_4,4,3F6KKYWMNCQ98CSTFVO3QOMIDN1DN5,grizzly,6435.0849999755155,familiar,far,grizzlybear.jpg,lion.jpg,survey-text,17,213611,adult,NA,NA,7,grizzly
pilot2,adult_4,4,3F6KKYWMNCQ98CSTFVO3QOMIDN1DN5,bark,9099.025000003166,familiar,far,germanshepherd.jpg,cow.jpg,survey-text,18,223222,adult,NA,NA,4,bark
pilot2,adult_4,4,3F6KKYWMNCQ98CSTFVO3QOMIDN1DN5,family car,10874.89999999525,familiar,far,sedan.jpg,firetruck.jpg,survey-text,19,234613,adult,NA,NA,10,familycar
pilot2,adult_4,4,3F6KKYWMNCQ98CSTFVO3QOMIDN1DN5,collared shirt,9872.054999985266,familiar,isolated,poloshirt.jpg,hawaiishirt.jpg,survey-text,21,248318,adult,NA,NA,14,collarshirt
pilot2,adult_4,4,3F6KKYWMNCQ98CSTFVO3QOMIDN1DN5,dining table,9344.390000012936,familiar,isolated,diningtable.jpg,picnictable.jpg,survey-text,22,258183,adult,NA,NA,12,dinetable
pilot2,adult_4,4,3F6KKYWMNCQ98CSTFVO3QOMIDN1DN5,grizzly,4028.6249999771826,familiar,isolated,grizzlybear.jpg,polarbear.jpg,survey-text,23,262728,adult,NA,NA,7,grizzly
pilot2,adult_4,4,3F6KKYWMNCQ98CSTFVO3QOMIDN1DN5,small bird,10018.800000019835,familiar,isolated,sparrow.jpg,eagle.jpg,survey-text,24,273257,adult,NA,NA,10,smallbird
pilot2,adult_4,4,3F6KKYWMNCQ98CSTFVO3QOMIDN1DN5,dog,10007.955000008224,familiar,isolated,germanshepherd.jpg,pug.jpg,survey-text,25,283778,adult,NA,NA,3,dog
pilot2,adult_4,4,3F6KKYWMNCQ98CSTFVO3QOMIDN1DN5,candy,4800.274999986868,familiar,isolated,mnms.jpg,gummybears.jpg,survey-text,26,289102,adult,NA,NA,5,candy
pilot2,adult_4,4,3F6KKYWMNCQ98CSTFVO3QOMIDN1DN5,fish,1863.1849999947008,familiar,isolated,goldfish.jpg,swordfish.jpg,survey-text,27,291477,adult,NA,NA,4,fish
pilot2,adult_4,4,3F6KKYWMNCQ98CSTFVO3QOMIDN1DN5,car,5062.935000023572,familiar,isolated,sedan.jpg,sportscar.jpg,survey-text,28,297057,adult,NA,NA,3,car
pilot2,adult_4,4,3F6KKYWMNCQ98CSTFVO3QOMIDN1DN5,balanced square,21058.229999995092,tangram,close,tangram-55.jpg,N1.jpg,survey-text,30,321802,adult,NA,NA,15,balancesquare
pilot2,adult_4,4,3F6KKYWMNCQ98CSTFVO3QOMIDN1DN5,looking down,4774.784999986878,tangram,close,B1.jpg,P1.jpg,survey-text,31,327093,adult,NA,NA,12,lookdown
pilot2,adult_4,4,3F6KKYWMNCQ98CSTFVO3QOMIDN1DN5,square tilted,11758.330000011483,tangram,close,tangram-48.jpg,tangram-187.jpg,survey-text,32,339365,adult,NA,NA,13,squaretilt
pilot2,adult_4,4,3F6KKYWMNCQ98CSTFVO3QOMIDN1DN5,upsidedown triangle,20875.559999985853,tangram,close,tangram-90.jpg,tangram-81.jpg,survey-text,33,360761,adult,NA,NA,19,upsidedowntriangle
pilot2,adult_4,4,3F6KKYWMNCQ98CSTFVO3QOMIDN1DN5,balanced square,10989.565000025324,tangram,close,tangram-164.jpg,tangram-183.jpg,survey-text,34,372274,adult,NA,NA,15,balancesquare
pilot2,adult_4,4,3F6KKYWMNCQ98CSTFVO3QOMIDN1DN5,running,6316.455000021961,tangram,close,tangram-67.jpg,tangram-32.jpg,survey-text,35,379106,adult,NA,NA,7,run
pilot2,adult_4,4,3F6KKYWMNCQ98CSTFVO3QOMIDN1DN5,shapes compressed,11014.300000009824,tangram,close,H1.jpg,I1.jpg,survey-text,36,390641,adult,NA,NA,17,shapecompress
pilot2,adult_4,4,3F6KKYWMNCQ98CSTFVO3QOMIDN1DN5,rhombus,6724.675000004936,tangram,close,A2.jpg,tangram-99.jpg,survey-text,37,397887,adult,NA,NA,7,rhombus
pilot2,adult_4,4,3F6KKYWMNCQ98CSTFVO3QOMIDN1DN5,diamond head,9501.464999979362,tangram,isolated,H1.jpg,I1.jpg,survey-text,39,410129,adult,NA,NA,12,diamondhead
pilot2,adult_4,4,3F6KKYWMNCQ98CSTFVO3QOMIDN1DN5,running,3199.3550000188407,tangram,isolated,tangram-55.jpg,N1.jpg,survey-text,40,413843,adult,NA,NA,7,run
pilot2,adult_4,4,3F6KKYWMNCQ98CSTFVO3QOMIDN1DN5,looking down,6462.514999991981,tangram,isolated,B1.jpg,P1.jpg,survey-text,41,420820,adult,NA,NA,12,lookdown
pilot2,adult_4,4,3F6KKYWMNCQ98CSTFVO3QOMIDN1DN5,kicking,3310.55500000366,tangram,isolated,tangram-48.jpg,tangram-187.jpg,survey-text,42,424653,adult,NA,NA,7,kick
pilot2,adult_4,4,3F6KKYWMNCQ98CSTFVO3QOMIDN1DN5,balanced square,13531.660000007832,tangram,isolated,tangram-164.jpg,tangram-183.jpg,survey-text,43,438696,adult,NA,NA,15,balancesquare
pilot2,adult_4,4,3F6KKYWMNCQ98CSTFVO3QOMIDN1DN5,upsidedown triangle,4518.175000004703,tangram,isolated,tangram-90.jpg,tangram-81.jpg,survey-text,44,443745,adult,NA,NA,19,upsidedowntriangle
pilot2,adult_4,4,3F6KKYWMNCQ98CSTFVO3QOMIDN1DN5,rhombus,6616.060000000289,tangram,isolated,A2.jpg,tangram-99.jpg,survey-text,45,450885,adult,NA,NA,7,rhombus
pilot2,adult_4,4,3F6KKYWMNCQ98CSTFVO3QOMIDN1DN5,running,3550.534999987576,tangram,isolated,tangram-67.jpg,tangram-32.jpg,survey-text,46,454948,adult,NA,NA,7,run
pilot2,adult_4,4,3F6KKYWMNCQ98CSTFVO3QOMIDN1DN5,running,5341.670000023441,tangram,far,tangram-67.jpg,G1.jpg,survey-text,48,462782,adult,NA,NA,7,run
pilot2,adult_4,4,3F6KKYWMNCQ98CSTFVO3QOMIDN1DN5,rhombus,6910.970000026282,tangram,far,A2.jpg,C1.jpg,survey-text,49,470218,adult,NA,NA,7,rhombus
pilot2,adult_4,4,3F6KKYWMNCQ98CSTFVO3QOMIDN1DN5,diamond head,5078.905000002123,tangram,far,H1.jpg,tangram-8.jpg,survey-text,50,475812,adult,NA,NA,12,diamondhead
pilot2,adult_4,4,3F6KKYWMNCQ98CSTFVO3QOMIDN1DN5,kicking,4877.054999989923,tangram,far,tangram-48.jpg,D1.jpg,survey-text,51,481210,adult,NA,NA,7,kick
pilot2,adult_4,4,3F6KKYWMNCQ98CSTFVO3QOMIDN1DN5,running,3016.0800000012387,tangram,far,tangram-55.jpg,tangram-143.jpg,survey-text,52,484738,adult,NA,NA,7,run
pilot2,adult_4,4,3F6KKYWMNCQ98CSTFVO3QOMIDN1DN5,upsidedown triangle,4325.799999991432,tangram,far,tangram-90.jpg,tangram-120.jpg,survey-text,53,489576,adult,NA,NA,19,upsidedowntriangle
pilot2,adult_4,4,3F6KKYWMNCQ98CSTFVO3QOMIDN1DN5,looking down,2544.690000009723,tangram,far,B1.jpg,tangram-4.jpg,survey-text,54,492642,adult,NA,NA,12,lookdown
pilot2,adult_4,4,3F6KKYWMNCQ98CSTFVO3QOMIDN1DN5,climbing,8714.529999997467,tangram,far,tangram-164.jpg,tangram-64.jpg,survey-text,55,501874,adult,NA,NA,8,climb
pilot2,adult_7,7,3SPJ033422SGNXWZWTJPA2F2MSRYJL,person walking,7545,tangram,isolated,B1.jpg,P1.jpg,survey-text,3,25449,adult,NA,NA,14,personwalk
pilot2,adult_7,7,3SPJ033422SGNXWZWTJPA2F2MSRYJL,woman skipping,16315,tangram,isolated,A2.jpg,tangram-99.jpg,survey-text,4,42280,adult,NA,NA,14,womanskip
pilot2,adult_7,7,3SPJ033422SGNXWZWTJPA2F2MSRYJL,boy running,6720,tangram,isolated,tangram-55.jpg,N1.jpg,survey-text,5,49521,adult,NA,NA,11,boyrun
pilot2,adult_7,7,3SPJ033422SGNXWZWTJPA2F2MSRYJL,man dancing,6165,tangram,isolated,tangram-90.jpg,tangram-81.jpg,survey-text,6,56201,adult,NA,NA,11,mandance
pilot2,adult_7,7,3SPJ033422SGNXWZWTJPA2F2MSRYJL,man running,6630,tangram,isolated,tangram-67.jpg,tangram-32.jpg,survey-text,7,63345,adult,NA,NA,11,manrun
pilot2,adult_7,7,3SPJ033422SGNXWZWTJPA2F2MSRYJL,man dancing,7181,tangram,isolated,tangram-48.jpg,tangram-187.jpg,survey-text,8,71033,adult,NA,NA,11,mandance
pilot2,adult_7,7,3SPJ033422SGNXWZWTJPA2F2MSRYJL,boy dancing,5832,tangram,isolated,tangram-164.jpg,tangram-183.jpg,survey-text,9,77376,adult,NA,NA,11,boydance
pilot2,adult_7,7,3SPJ033422SGNXWZWTJPA2F2MSRYJL,priest,5460,tangram,isolated,H1.jpg,I1.jpg,survey-text,10,83345,adult,NA,NA,6,priest
pilot2,adult_7,7,3SPJ033422SGNXWZWTJPA2F2MSRYJL,cheap car,12785,familiar,close,sedan.jpg,sportscar.jpg,survey-text,12,103041,adult,NA,NA,9,cheapcar
pilot2,adult_7,7,3SPJ033422SGNXWZWTJPA2F2MSRYJL,indoor table,6643,familiar,close,diningtable.jpg,picnictable.jpg,survey-text,13,110209,adult,NA,NA,12,indoortable
pilot2,adult_7,7,3SPJ033422SGNXWZWTJPA2F2MSRYJL,grizzly,6598,familiar,close,grizzlybear.jpg,polarbear.jpg,survey-text,14,117313,adult,NA,NA,7,grizzly
pilot2,adult_7,7,3SPJ033422SGNXWZWTJPA2F2MSRYJL,goldfish,5370,familiar,close,goldfish.jpg,swordfish.jpg,survey-text,15,123200,adult,NA,NA,8,goldfish
pilot2,adult_7,7,3SPJ033422SGNXWZWTJPA2F2MSRYJL,finch,17997,familiar,close,sparrow.jpg,eagle.jpg,survey-text,16,141713,adult,NA,NA,5,finch
pilot2,adult_7,7,3SPJ033422SGNXWZWTJPA2F2MSRYJL,polo,5491,familiar,close,poloshirt.jpg,hawaiishirt.jpg,survey-text,17,147713,adult,NA,NA,4,polo
pilot2,adult_7,7,3SPJ033422SGNXWZWTJPA2F2MSRYJL,chocolate,6851,familiar,close,mnms.jpg,gummybears.jpg,survey-text,18,155088,adult,NA,NA,9,chocolate
pilot2,adult_7,7,3SPJ033422SGNXWZWTJPA2F2MSRYJL,german,6149,familiar,close,germanshepherd.jpg,pug.jpg,survey-text,19,161745,adult,NA,NA,6,german
pilot2,adult_7,7,3SPJ033422SGNXWZWTJPA2F2MSRYJL,priest,12913,tangram,far,H1.jpg,tangram-8.jpg,survey-text,21,181649,adult,NA,NA,6,priest
pilot2,adult_7,7,3SPJ033422SGNXWZWTJPA2F2MSRYJL,kicking,5333,tangram,far,tangram-48.jpg,D1.jpg,survey-text,22,187488,adult,NA,NA,7,kick
pilot2,adult_7,7,3SPJ033422SGNXWZWTJPA2F2MSRYJL,legs apart,5820,tangram,far,tangram-90.jpg,tangram-120.jpg,survey-text,23,193817,adult,NA,NA,10,legapart
pilot2,adult_7,7,3SPJ033422SGNXWZWTJPA2F2MSRYJL,walking,7955,tangram,far,B1.jpg,tangram-4.jpg,survey-text,24,202281,adult,NA,NA,7,walk
pilot2,adult_7,7,3SPJ033422SGNXWZWTJPA2F2MSRYJL,skipping,6406,tangram,far,A2.jpg,C1.jpg,survey-text,25,209208,adult,NA,NA,8,skip
pilot2,adult_7,7,3SPJ033422SGNXWZWTJPA2F2MSRYJL,running,4410,tangram,far,tangram-67.jpg,G1.jpg,survey-text,26,214137,adult,NA,NA,7,run
pilot2,adult_7,7,3SPJ033422SGNXWZWTJPA2F2MSRYJL,high kick,6656,tangram,far,tangram-164.jpg,tangram-64.jpg,survey-text,27,221313,adult,NA,NA,9,highkick
pilot2,adult_7,7,3SPJ033422SGNXWZWTJPA2F2MSRYJL,runner,4255,tangram,far,tangram-55.jpg,tangram-143.jpg,survey-text,28,226088,adult,NA,NA,6,runner
pilot2,adult_7,7,3SPJ033422SGNXWZWTJPA2F2MSRYJL,goldfish,3879,familiar,far,goldfish.jpg,iguana.jpg,survey-text,30,232545,adult,NA,NA,8,goldfish
pilot2,adult_7,7,3SPJ033422SGNXWZWTJPA2F2MSRYJL,dog,5046,familiar,far,germanshepherd.jpg,cow.jpg,survey-text,31,238113,adult,NA,NA,3,dog
pilot2,adult_7,7,3SPJ033422SGNXWZWTJPA2F2MSRYJL,bear,2190,familiar,far,grizzlybear.jpg,lion.jpg,survey-text,32,240817,adult,NA,NA,4,bear
pilot2,adult_7,7,3SPJ033422SGNXWZWTJPA2F2MSRYJL,table,1849,familiar,far,diningtable.jpg,wardrobe.jpg,survey-text,33,243177,adult,NA,NA,5,table
pilot2,adult_7,7,3SPJ033422SGNXWZWTJPA2F2MSRYJL,shirt,1617,familiar,far,poloshirt.jpg,dress.jpg,survey-text,34,245304,adult,NA,NA,5,shirt
pilot2,adult_7,7,3SPJ033422SGNXWZWTJPA2F2MSRYJL,car,1577,familiar,far,sedan.jpg,firetruck.jpg,survey-text,35,247401,adult,NA,NA,3,car
pilot2,adult_7,7,3SPJ033422SGNXWZWTJPA2F2MSRYJL,candy,2850,familiar,far,mnms.jpg,pretzels.jpg,survey-text,36,250777,adult,NA,NA,5,candy
pilot2,adult_7,7,3SPJ033422SGNXWZWTJPA2F2MSRYJL,bird,2817,familiar,far,sparrow.jpg,squirrel.jpg,survey-text,37,254105,adult,NA,NA,4,bird
pilot2,adult_7,7,3SPJ033422SGNXWZWTJPA2F2MSRYJL,goldfish,3333,familiar,isolated,goldfish.jpg,swordfish.jpg,survey-text,39,261921,adult,NA,NA,8,goldfish
pilot2,adult_7,7,3SPJ033422SGNXWZWTJPA2F2MSRYJL,candy,1958,familiar,isolated,mnms.jpg,gummybears.jpg,survey-text,40,264385,adult,NA,NA,5,candy
pilot2,adult_7,7,3SPJ033422SGNXWZWTJPA2F2MSRYJL,car,1302,familiar,isolated,sedan.jpg,sportscar.jpg,survey-text,41,266209,adult,NA,NA,3,car
pilot2,adult_7,7,3SPJ033422SGNXWZWTJPA2F2MSRYJL,table,1794,familiar,isolated,diningtable.jpg,picnictable.jpg,survey-text,42,268521,adult,NA,NA,5,table
pilot2,adult_7,7,3SPJ033422SGNXWZWTJPA2F2MSRYJL,shirt,1695,familiar,isolated,poloshirt.jpg,hawaiishirt.jpg,survey-text,43,270721,adult,NA,NA,5,shirt
pilot2,adult_7,7,3SPJ033422SGNXWZWTJPA2F2MSRYJL,dog,1734,familiar,isolated,germanshepherd.jpg,pug.jpg,survey-text,44,272961,adult,NA,NA,3,dog
pilot2,adult_7,7,3SPJ033422SGNXWZWTJPA2F2MSRYJL,bird,1661,familiar,isolated,sparrow.jpg,eagle.jpg,survey-text,45,275129,adult,NA,NA,4,bird
pilot2,adult_7,7,3SPJ033422SGNXWZWTJPA2F2MSRYJL,bear,1395,familiar,isolated,grizzlybear.jpg,polarbear.jpg,survey-text,46,277041,adult,NA,NA,4,bear
pilot2,adult_7,7,3SPJ033422SGNXWZWTJPA2F2MSRYJL,hurdler,17838,tangram,close,tangram-48.jpg,tangram-187.jpg,survey-text,48,299785,adult,NA,NA,7,hurdler
pilot2,adult_7,7,3SPJ033422SGNXWZWTJPA2F2MSRYJL,sad man,6471,tangram,close,B1.jpg,P1.jpg,survey-text,49,306770,adult,NA,NA,7,sadman
pilot2,adult_7,7,3SPJ033422SGNXWZWTJPA2F2MSRYJL,back straight,8353,tangram,close,H1.jpg,I1.jpg,survey-text,50,315633,adult,NA,NA,13,backstraight
pilot2,adult_7,7,3SPJ033422SGNXWZWTJPA2F2MSRYJL,triangle body,12610,tangram,close,tangram-90.jpg,tangram-81.jpg,survey-text,51,328769,adult,NA,NA,13,trianglebody
pilot2,adult_7,7,3SPJ033422SGNXWZWTJPA2F2MSRYJL,flying kite,5771,tangram,close,A2.jpg,tangram-99.jpg,survey-text,52,335050,adult,NA,NA,11,flykite
pilot2,adult_7,7,3SPJ033422SGNXWZWTJPA2F2MSRYJL,sitting flat,15510,tangram,close,tangram-164.jpg,tangram-183.jpg,survey-text,53,351065,adult,NA,NA,12,sitflat
pilot2,adult_7,7,3SPJ033422SGNXWZWTJPA2F2MSRYJL,slower runner,13797,tangram,close,tangram-55.jpg,N1.jpg,survey-text,54,365385,adult,NA,NA,13,slowrunner
pilot2,adult_7,7,3SPJ033422SGNXWZWTJPA2F2MSRYJL,no arms,6637,tangram,close,tangram-67.jpg,tangram-32.jpg,survey-text,55,372546,adult,NA,NA,7,noarm
pilot2,adult_9,9,3OWEPKL08A1TR3RJOILHQWCMRC97NH,human,9884,tangram,far,tangram-67.jpg,G1.jpg,survey-text,3,26854,adult,NA,NA,5,human
pilot2,adult_9,9,3OWEPKL08A1TR3RJOILHQWCMRC97NH,teacher,7987,tangram,far,H1.jpg,tangram-8.jpg,survey-text,4,35360,adult,NA,NA,7,teacher
pilot2,adult_9,9,3OWEPKL08A1TR3RJOILHQWCMRC97NH,sport,3873,tangram,far,tangram-55.jpg,tangram-143.jpg,survey-text,5,39745,adult,NA,NA,5,sport
pilot2,adult_9,9,3OWEPKL08A1TR3RJOILHQWCMRC97NH,walk,3855,tangram,far,B1.jpg,tangram-4.jpg,survey-text,6,44112,adult,NA,NA,4,walk
pilot2,adult_9,9,3OWEPKL08A1TR3RJOILHQWCMRC97NH,sit,4065,tangram,far,tangram-164.jpg,tangram-64.jpg,survey-text,7,48697,adult,NA,NA,3,sit
pilot2,adult_9,9,3OWEPKL08A1TR3RJOILHQWCMRC97NH,praying,6315,tangram,far,A2.jpg,C1.jpg,survey-text,8,55528,adult,NA,NA,7,pray
pilot2,adult_9,9,3OWEPKL08A1TR3RJOILHQWCMRC97NH,kick,3014,tangram,far,tangram-48.jpg,D1.jpg,survey-text,9,59056,adult,NA,NA,4,kick
pilot2,adult_9,9,3OWEPKL08A1TR3RJOILHQWCMRC97NH,joy,5874,tangram,far,tangram-90.jpg,tangram-120.jpg,survey-text,10,65432,adult,NA,NA,3,joy
pilot2,adult_9,9,3OWEPKL08A1TR3RJOILHQWCMRC97NH,bear,5007,familiar,isolated,grizzlybear.jpg,polarbear.jpg,survey-text,12,74729,adult,NA,NA,4,bear
pilot2,adult_9,9,3OWEPKL08A1TR3RJOILHQWCMRC97NH,car,2396,familiar,isolated,sedan.jpg,sportscar.jpg,survey-text,13,77641,adult,NA,NA,3,car
pilot2,adult_9,9,3OWEPKL08A1TR3RJOILHQWCMRC97NH,table,2966,familiar,isolated,diningtable.jpg,picnictable.jpg,survey-text,14,81113,adult,NA,NA,5,table
pilot2,adult_9,9,3OWEPKL08A1TR3RJOILHQWCMRC97NH,candy,2656,familiar,isolated,mnms.jpg,gummybears.jpg,survey-text,15,84273,adult,NA,NA,5,candy
pilot2,adult_9,9,3OWEPKL08A1TR3RJOILHQWCMRC97NH,bird,6586,familiar,isolated,sparrow.jpg,eagle.jpg,survey-text,16,91368,adult,NA,NA,4,bird
pilot2,adult_9,9,3OWEPKL08A1TR3RJOILHQWCMRC97NH,fish,2909,familiar,isolated,goldfish.jpg,swordfish.jpg,survey-text,17,94800,adult,NA,NA,4,fish
pilot2,adult_9,9,3OWEPKL08A1TR3RJOILHQWCMRC97NH,shirt,4093,familiar,isolated,poloshirt.jpg,hawaiishirt.jpg,survey-text,18,99400,adult,NA,NA,5,shirt
pilot2,adult_9,9,3OWEPKL08A1TR3RJOILHQWCMRC97NH,dog,2798,familiar,isolated,germanshepherd.jpg,pug.jpg,survey-text,19,102713,adult,NA,NA,3,dog
pilot2,adult_9,9,3OWEPKL08A1TR3RJOILHQWCMRC97NH,bow,2477,tangram,close,H1.jpg,I1.jpg,survey-text,21,107880,adult,NA,NA,3,bow
pilot2,adult_9,9,3OWEPKL08A1TR3RJOILHQWCMRC97NH,hit,2927,tangram,close,A2.jpg,tangram-99.jpg,survey-text,22,111329,adult,NA,NA,3,hit
pilot2,adult_9,9,3OWEPKL08A1TR3RJOILHQWCMRC97NH,run,2013,tangram,close,tangram-55.jpg,N1.jpg,survey-text,23,113857,adult,NA,NA,3,run
pilot2,adult_9,9,3OWEPKL08A1TR3RJOILHQWCMRC97NH,give,4555,tangram,close,tangram-90.jpg,tangram-81.jpg,survey-text,24,118936,adult,NA,NA,4,give
pilot2,adult_9,9,3OWEPKL08A1TR3RJOILHQWCMRC97NH,forward,3676,tangram,close,B1.jpg,P1.jpg,survey-text,25,123128,adult,NA,NA,7,forward
pilot2,adult_9,9,3OWEPKL08A1TR3RJOILHQWCMRC97NH,slip,2608,tangram,close,tangram-164.jpg,tangram-183.jpg,survey-text,26,126256,adult,NA,NA,4,slip
pilot2,adult_9,9,3OWEPKL08A1TR3RJOILHQWCMRC97NH,kick,3593,tangram,close,tangram-48.jpg,tangram-187.jpg,survey-text,27,130377,adult,NA,NA,4,kick
pilot2,adult_9,9,3OWEPKL08A1TR3RJOILHQWCMRC97NH,run,2904,tangram,close,tangram-67.jpg,tangram-32.jpg,survey-text,28,133793,adult,NA,NA,3,run
pilot2,adult_9,9,3OWEPKL08A1TR3RJOILHQWCMRC97NH,run,2122,tangram,isolated,tangram-55.jpg,N1.jpg,survey-text,30,137984,adult,NA,NA,3,run
pilot2,adult_9,9,3OWEPKL08A1TR3RJOILHQWCMRC97NH,toss,2634,tangram,isolated,A2.jpg,tangram-99.jpg,survey-text,31,141137,adult,NA,NA,4,toss
pilot2,adult_9,9,3OWEPKL08A1TR3RJOILHQWCMRC97NH,sit,3783,tangram,isolated,tangram-164.jpg,tangram-183.jpg,survey-text,32,145432,adult,NA,NA,3,sit
pilot2,adult_9,9,3OWEPKL08A1TR3RJOILHQWCMRC97NH,bow,3177,tangram,isolated,H1.jpg,I1.jpg,survey-text,33,149128,adult,NA,NA,3,bow
pilot2,adult_9,9,3OWEPKL08A1TR3RJOILHQWCMRC97NH,run,1787,tangram,isolated,tangram-67.jpg,tangram-32.jpg,survey-text,34,151440,adult,NA,NA,3,run
pilot2,adult_9,9,3OWEPKL08A1TR3RJOILHQWCMRC97NH,joy,1999,tangram,isolated,tangram-90.jpg,tangram-81.jpg,survey-text,35,153961,adult,NA,NA,3,joy
pilot2,adult_9,9,3OWEPKL08A1TR3RJOILHQWCMRC97NH,kick,2533,tangram,isolated,tangram-48.jpg,tangram-187.jpg,survey-text,36,157016,adult,NA,NA,4,kick
pilot2,adult_9,9,3OWEPKL08A1TR3RJOILHQWCMRC97NH,forward,5096,tangram,isolated,B1.jpg,P1.jpg,survey-text,37,162625,adult,NA,NA,7,forward
pilot2,adult_9,9,3OWEPKL08A1TR3RJOILHQWCMRC97NH,wood,4577,familiar,close,diningtable.jpg,picnictable.jpg,survey-text,39,169840,adult,NA,NA,4,wood
pilot2,adult_9,9,3OWEPKL08A1TR3RJOILHQWCMRC97NH,fly,3629,familiar,close,sparrow.jpg,eagle.jpg,survey-text,40,173984,adult,NA,NA,3,fly
pilot2,adult_9,9,3OWEPKL08A1TR3RJOILHQWCMRC97NH,car,2195,familiar,close,sedan.jpg,sportscar.jpg,survey-text,41,176688,adult,NA,NA,3,car
pilot2,adult_9,9,3OWEPKL08A1TR3RJOILHQWCMRC97NH,nice,3252,familiar,close,germanshepherd.jpg,pug.jpg,survey-text,42,180457,adult,NA,NA,4,nice
pilot2,adult_9,9,3OWEPKL08A1TR3RJOILHQWCMRC97NH,candy,2559,familiar,close,mnms.jpg,gummybears.jpg,survey-text,43,183528,adult,NA,NA,5,candy
pilot2,adult_9,9,3OWEPKL08A1TR3RJOILHQWCMRC97NH,fish,5052,familiar,close,goldfish.jpg,swordfish.jpg,survey-text,44,189096,adult,NA,NA,4,fish
pilot2,adult_9,9,3OWEPKL08A1TR3RJOILHQWCMRC97NH,shirt,2546,familiar,close,poloshirt.jpg,hawaiishirt.jpg,survey-text,45,192145,adult,NA,NA,5,shirt
pilot2,adult_9,9,3OWEPKL08A1TR3RJOILHQWCMRC97NH,bear,2881,familiar,close,grizzlybear.jpg,polarbear.jpg,survey-text,46,195536,adult,NA,NA,4,bear
pilot2,adult_9,9,3OWEPKL08A1TR3RJOILHQWCMRC97NH,animal,4226,familiar,far,germanshepherd.jpg,cow.jpg,survey-text,48,201681,adult,NA,NA,6,animal
pilot2,adult_9,9,3OWEPKL08A1TR3RJOILHQWCMRC97NH,animal,3961,familiar,far,goldfish.jpg,iguana.jpg,survey-text,49,206161,adult,NA,NA,6,animal
pilot2,adult_9,9,3OWEPKL08A1TR3RJOILHQWCMRC97NH,wood,5605,familiar,far,diningtable.jpg,wardrobe.jpg,survey-text,50,212289,adult,NA,NA,4,wood
pilot2,adult_9,9,3OWEPKL08A1TR3RJOILHQWCMRC97NH,car,2716,familiar,far,sedan.jpg,firetruck.jpg,survey-text,51,215512,adult,NA,NA,3,car
pilot2,adult_9,9,3OWEPKL08A1TR3RJOILHQWCMRC97NH,pet,2707,familiar,far,sparrow.jpg,squirrel.jpg,survey-text,52,218737,adult,NA,NA,3,pet
pilot2,adult_9,9,3OWEPKL08A1TR3RJOILHQWCMRC97NH,animal,3641,familiar,far,grizzlybear.jpg,lion.jpg,survey-text,53,222896,adult,NA,NA,6,animal
pilot2,adult_9,9,3OWEPKL08A1TR3RJOILHQWCMRC97NH,snack,5018,familiar,far,mnms.jpg,pretzels.jpg,survey-text,54,228433,adult,NA,NA,5,snack
pilot2,adult_9,9,3OWEPKL08A1TR3RJOILHQWCMRC97NH,wear,3144,familiar,far,poloshirt.jpg,dress.jpg,survey-text,55,232089,adult,NA,NA,4,wear
pilot2,adult_10,10,3HUTX6F6VVC4NNUPJL4Z9UVJ66GO2L,looks like metallic structure.,78409.92000000551,tangram,isolated,H1.jpg,I1.jpg,survey-text,3,136663,adult,NA,NA,30,looklikemetallicstructure.
pilot2,adult_10,10,3HUTX6F6VVC4NNUPJL4Z9UVJ66GO2L,looks like a human structure on the run.,24602.719999995315,tangram,isolated,tangram-48.jpg,tangram-187.jpg,survey-text,4,161778,adult,NA,NA,40,looklikeahumanstructureontherun.
pilot2,adult_10,10,3HUTX6F6VVC4NNUPJL4Z9UVJ66GO2L,looks like a female body structure walking.,24633.769999985816,tangram,isolated,tangram-90.jpg,tangram-81.jpg,survey-text,5,186930,adult,NA,NA,43,looklikeafemalebodystructurewalk.
pilot2,adult_10,10,3HUTX6F6VVC4NNUPJL4Z9UVJ66GO2L,this structure looks like a human sitting with one leg up.,46635.3550000058,tangram,isolated,tangram-164.jpg,tangram-183.jpg,survey-text,6,234078,adult,NA,NA,58,thisstructurelooklikeahumansitwithonelegup.
pilot2,adult_10,10,3HUTX6F6VVC4NNUPJL4Z9UVJ66GO2L,this structure looks like a kid running.,56689.54000000667,tangram,isolated,tangram-55.jpg,N1.jpg,survey-text,7,291284,adult,NA,NA,40,thisstructurelooklikeakidrun.
pilot2,adult_10,10,3HUTX6F6VVC4NNUPJL4Z9UVJ66GO2L,this structure looks like a female body figure on a run.,48723.0750000017,tangram,isolated,tangram-67.jpg,tangram-32.jpg,survey-text,8,340522,adult,NA,NA,56,thisstructurelooklikeafemalebodyfigureonarun.
pilot2,adult_10,10,3HUTX6F6VVC4NNUPJL4Z9UVJ66GO2L,this structure looks like a human body walking in a depressed state.,43484.46000000695,tangram,isolated,B1.jpg,P1.jpg,survey-text,9,384519,adult,NA,NA,68,thisstructurelooklikeahumanbodywalkinadepressstate.
pilot2,adult_10,10,3HUTX6F6VVC4NNUPJL4Z9UVJ66GO2L,looks like a female body structure walking.,57040.829999998095,tangram,isolated,A2.jpg,tangram-99.jpg,survey-text,10,442065,adult,NA,NA,43,looklikeafemalebodystructurewalk.
pilot2,adult_10,10,3HUTX6F6VVC4NNUPJL4Z9UVJ66GO2L,looks like a human walking in a depressed state.,60891.40500000212,tangram,close,B1.jpg,P1.jpg,survey-text,12,540276,adult,NA,NA,48,looklikeahumanwalkinadepressstate.
pilot2,adult_10,10,3HUTX6F6VVC4NNUPJL4Z9UVJ66GO2L,the structure looks like a man sitting upright with a leg up.,63892.86999999604,tangram,close,tangram-164.jpg,tangram-183.jpg,survey-text,13,604678,adult,NA,NA,61,thestructurelooklikeamansituprightwithalegup.
pilot2,adult_10,10,3HUTX6F6VVC4NNUPJL4Z9UVJ66GO2L,the structure looks like a female body running  gently.,121524.45500000611,tangram,close,tangram-90.jpg,tangram-81.jpg,survey-text,14,726719,adult,NA,NA,55,thestructurelooklikeafemalebodyrungently.
pilot2,adult_10,10,3HUTX6F6VVC4NNUPJL4Z9UVJ66GO2L,this structure resembles a man walking majestically.,59668.00499999954,tangram,close,tangram-48.jpg,tangram-187.jpg,survey-text,15,786895,adult,NA,NA,52,thisstructureresembleamanwalkmajestically.
pilot2,adult_10,10,3HUTX6F6VVC4NNUPJL4Z9UVJ66GO2L,this structure looks like a female body running.,212513.4999999864,tangram,close,tangram-67.jpg,tangram-32.jpg,survey-text,16,999927,adult,NA,NA,48,thisstructurelooklikeafemalebodyrun.
pilot2,adult_10,10,3HUTX6F6VVC4NNUPJL4Z9UVJ66GO2L,this structure looks like a man sitting and holding something in his stretched out hands.,61493.89500000689,tangram,close,H1.jpg,I1.jpg,survey-text,17,1061927,adult,NA,NA,89,thisstructurelooklikeamansitandholdsomethinginhisstretchouthand.
pilot2,adult_10,10,3HUTX6F6VVC4NNUPJL4Z9UVJ66GO2L,this image here looks like a human structure running aggressively.,52192.05500000692,tangram,close,tangram-55.jpg,N1.jpg,survey-text,18,1114638,adult,NA,NA,66,thisimageherelooklikeahumanstructurerunaggressively.
pilot2,adult_10,10,3HUTX6F6VVC4NNUPJL4Z9UVJ66GO2L,this image shows a female body structure walking towards the left side.,37166.375000000466,tangram,close,A2.jpg,tangram-99.jpg,survey-text,19,1152314,adult,NA,NA,71,thisimageshowafemalebodystructurewalktowardstheleaveside.
pilot2,adult_10,10,3HUTX6F6VVC4NNUPJL4Z9UVJ66GO2L,this image is a little bird that chirps regularly anywhere it perches.,68591.6649999998,familiar,close,sparrow.jpg,eagle.jpg,survey-text,21,1232172,adult,NA,NA,70,thisimagebealittlebirdthatchirpregularlyanywhereitperch.
pilot2,adult_10,10,3HUTX6F6VVC4NNUPJL4Z9UVJ66GO2L,this image is a blue sedan four doors type of car.,29239.49500000174,familiar,close,sedan.jpg,sportscar.jpg,survey-text,22,1261925,adult,NA,NA,50,thisimagebeabluesedanfourdoortypeofcar.
pilot2,adult_10,10,3HUTX6F6VVC4NNUPJL4Z9UVJ66GO2L,this is a rectangular high legged table.,40987.364999993704,familiar,close,diningtable.jpg,picnictable.jpg,survey-text,23,1303455,adult,NA,NA,40,thisbearectangularhighlegtable.
pilot2,adult_10,10,3HUTX6F6VVC4NNUPJL4Z9UVJ66GO2L,this image is a brown colored walking bear.,36388.09500000207,familiar,close,grizzlybear.jpg,polarbear.jpg,survey-text,24,1340353,adult,NA,NA,43,thisimagebeabrowncolorwalkbear.
pilot2,adult_10,10,3HUTX6F6VVC4NNUPJL4Z9UVJ66GO2L,this image is a picture of a german shepherded dog in a position of about to sit.,87409.02500000084,familiar,close,germanshepherd.jpg,pug.jpg,survey-text,25,1428273,adult,NA,NA,81,thisimagebeapictureofagermanshepherddoginapositionofabouttosit.
pilot2,adult_10,10,3HUTX6F6VVC4NNUPJL4Z9UVJ66GO2L,this picture shows m&ma candies.,59541.05500000855,familiar,close,mnms.jpg,gummybears.jpg,survey-text,26,1488334,adult,NA,NA,32,thispictureshowm&macandy.
pilot2,adult_10,10,3HUTX6F6VVC4NNUPJL4Z9UVJ66GO2L,this is a picture of a gold fish.,11401.265000007814,familiar,close,goldfish.jpg,swordfish.jpg,survey-text,27,1500246,adult,NA,NA,33,thisbeapictureofagoldfish.
pilot2,adult_10,10,3HUTX6F6VVC4NNUPJL4Z9UVJ66GO2L,this is a plane blue polo t-shirt.,33531.659999993164,familiar,close,poloshirt.jpg,hawaiishirt.jpg,survey-text,28,1534284,adult,NA,NA,34,thisbeaplanebluepolot-shirt.
pilot2,adult_10,10,3HUTX6F6VVC4NNUPJL4Z9UVJ66GO2L,this is a bird,20300.845000005094,familiar,far,sparrow.jpg,squirrel.jpg,survey-text,30,1565391,adult,NA,NA,14,thisbeabird
pilot2,adult_10,10,3HUTX6F6VVC4NNUPJL4Z9UVJ66GO2L,a gold fish.,9037.990000011863,familiar,far,goldfish.jpg,iguana.jpg,survey-text,31,1574937,adult,NA,NA,12,agoldfish.
pilot2,adult_10,10,3HUTX6F6VVC4NNUPJL4Z9UVJ66GO2L,a blue car,17068.35499999579,familiar,far,sedan.jpg,firetruck.jpg,survey-text,32,1592516,adult,NA,NA,10,abluecar
pilot2,adult_10,10,3HUTX6F6VVC4NNUPJL4Z9UVJ66GO2L,a bear.,6433.454999991227,familiar,far,grizzlybear.jpg,lion.jpg,survey-text,33,1599457,adult,NA,NA,7,abear.
pilot2,adult_10,10,3HUTX6F6VVC4NNUPJL4Z9UVJ66GO2L,m&m candies,11499.28000000352,familiar,far,mnms.jpg,pretzels.jpg,survey-text,34,1611472,adult,NA,NA,11,be&becandy
pilot2,adult_10,10,3HUTX6F6VVC4NNUPJL4Z9UVJ66GO2L,a german shepherd dog,23442.670000004116,familiar,far,germanshepherd.jpg,cow.jpg,survey-text,35,1635430,adult,NA,NA,21,agermanshepherddog
pilot2,adult_10,10,3HUTX6F6VVC4NNUPJL4Z9UVJ66GO2L,a plane blue t-shirt,23790.209999992047,familiar,far,poloshirt.jpg,dress.jpg,survey-text,36,1659734,adult,NA,NA,20,aplanebluet-shirt
pilot2,adult_10,10,3HUTX6F6VVC4NNUPJL4Z9UVJ66GO2L,a table.,9520.924999989802,familiar,far,diningtable.jpg,wardrobe.jpg,survey-text,37,1669763,adult,NA,NA,8,atable.
pilot2,adult_10,10,3HUTX6F6VVC4NNUPJL4Z9UVJ66GO2L,m&m candies,11296.210000000428,familiar,isolated,mnms.jpg,gummybears.jpg,survey-text,39,1687389,adult,NA,NA,11,be&becandy
pilot2,adult_10,10,3HUTX6F6VVC4NNUPJL4Z9UVJ66GO2L,bear,12333.394999994198,familiar,isolated,grizzlybear.jpg,polarbear.jpg,survey-text,40,1700231,adult,NA,NA,4,bear
pilot2,adult_10,10,3HUTX6F6VVC4NNUPJL4Z9UVJ66GO2L,car,8277.975000004517,familiar,isolated,sedan.jpg,sportscar.jpg,survey-text,41,1709026,adult,NA,NA,3,car
pilot2,adult_10,10,3HUTX6F6VVC4NNUPJL4Z9UVJ66GO2L,dog,6577.965000004042,familiar,isolated,germanshepherd.jpg,pug.jpg,survey-text,42,1716113,adult,NA,NA,3,dog
pilot2,adult_10,10,3HUTX6F6VVC4NNUPJL4Z9UVJ66GO2L,a blue shirt,18209.535000001542,familiar,isolated,poloshirt.jpg,hawaiishirt.jpg,survey-text,43,1734828,adult,NA,NA,12,ablueshirt
pilot2,adult_10,10,3HUTX6F6VVC4NNUPJL4Z9UVJ66GO2L,a bird,4560.825000007637,familiar,isolated,sparrow.jpg,eagle.jpg,survey-text,44,1739903,adult,NA,NA,6,abird
pilot2,adult_10,10,3HUTX6F6VVC4NNUPJL4Z9UVJ66GO2L,a gold fish,6060.7649999875575,familiar,isolated,goldfish.jpg,swordfish.jpg,survey-text,45,1746472,adult,NA,NA,11,agoldfish
pilot2,adult_10,10,3HUTX6F6VVC4NNUPJL4Z9UVJ66GO2L,a table,3934.069999988657,familiar,isolated,diningtable.jpg,picnictable.jpg,survey-text,46,1750923,adult,NA,NA,7,atable
pilot2,adult_10,10,3HUTX6F6VVC4NNUPJL4Z9UVJ66GO2L,a human structure in a sitting position holding something.,46145.31999999611,tangram,far,H1.jpg,tangram-8.jpg,survey-text,48,1807229,adult,NA,NA,58,ahumanstructureinasitpositionholdsomething.
pilot2,adult_10,10,3HUTX6F6VVC4NNUPJL4Z9UVJ66GO2L,a human structure walking towards the left,20052.209999994375,tangram,far,tangram-48.jpg,D1.jpg,survey-text,49,1827792,adult,NA,NA,42,ahumanstructurewalktowardstheleave
pilot2,adult_10,10,3HUTX6F6VVC4NNUPJL4Z9UVJ66GO2L,a female body structure walking towards the left side,33795.51999999955,tangram,far,A2.jpg,C1.jpg,survey-text,50,1862100,adult,NA,NA,53,afemalebodystructurewalktowardstheleaveside
pilot2,adult_10,10,3HUTX6F6VVC4NNUPJL4Z9UVJ66GO2L,a male body structure sitting with one leg up,34468.42499999935,tangram,far,tangram-164.jpg,tangram-64.jpg,survey-text,51,1897081,adult,NA,NA,45,amalebodystructuresitwithonelegup
pilot2,adult_10,10,3HUTX6F6VVC4NNUPJL4Z9UVJ66GO2L,a female body structure running,19652.11499998998,tangram,far,tangram-67.jpg,G1.jpg,survey-text,52,1917251,adult,NA,NA,31,afemalebodystructurerun
pilot2,adult_10,10,3HUTX6F6VVC4NNUPJL4Z9UVJ66GO2L,an unidentified human body structure running,26189.35000000056,tangram,far,tangram-55.jpg,tangram-143.jpg,survey-text,53,1943951,adult,NA,NA,44,aunidentifiedhumanbodystructurerun
pilot2,adult_10,10,3HUTX6F6VVC4NNUPJL4Z9UVJ66GO2L,a female body structure walking,24385.309999997728,tangram,far,B1.jpg,tangram-4.jpg,survey-text,54,1968850,adult,NA,NA,31,afemalebodystructurewalk
pilot2,adult_10,10,3HUTX6F6VVC4NNUPJL4Z9UVJ66GO2L,a female body structure walking,16357.534999988042,tangram,far,tangram-90.jpg,tangram-120.jpg,survey-text,55,1985730,adult,NA,NA,31,afemalebodystructurewalk
pilot2,adult_11,11,35GMH2SV3F6WI365C5Z0BV48396EOD,brown bear,19783.75000000233,familiar,isolated,grizzlybear.jpg,polarbear.jpg,survey-text,3,54639,adult,NA,NA,10,brownbear
pilot2,adult_11,11,35GMH2SV3F6WI365C5Z0BV48396EOD,blue shirt,14624.135000020033,familiar,isolated,poloshirt.jpg,hawaiishirt.jpg,survey-text,4,69767,adult,NA,NA,10,blueshirt
pilot2,adult_11,11,35GMH2SV3F6WI365C5Z0BV48396EOD,goldfish,11350.69999998086,familiar,isolated,goldfish.jpg,swordfish.jpg,survey-text,5,81623,adult,NA,NA,8,goldfish
pilot2,adult_11,11,35GMH2SV3F6WI365C5Z0BV48396EOD,long table,6674.185000010766,familiar,isolated,diningtable.jpg,picnictable.jpg,survey-text,6,88799,adult,NA,NA,10,longtable
pilot2,adult_11,11,35GMH2SV3F6WI365C5Z0BV48396EOD,bird,18978.140000021085,familiar,isolated,sparrow.jpg,eagle.jpg,survey-text,7,108280,adult,NA,NA,4,bird
pilot2,adult_11,11,35GMH2SV3F6WI365C5Z0BV48396EOD,blue car,10224.904999980936,familiar,isolated,sedan.jpg,sportscar.jpg,survey-text,8,119007,adult,NA,NA,8,bluecar
pilot2,adult_11,11,35GMH2SV3F6WI365C5Z0BV48396EOD,chocolate candy,32817.24999999278,familiar,isolated,mnms.jpg,gummybears.jpg,survey-text,9,152327,adult,NA,NA,15,chocolatecandy
pilot2,adult_11,11,35GMH2SV3F6WI365C5Z0BV48396EOD,german shepard,10704.194999998435,familiar,isolated,germanshepherd.jpg,pug.jpg,survey-text,10,163535,adult,NA,NA,14,germanshepard
pilot2,adult_11,11,35GMH2SV3F6WI365C5Z0BV48396EOD,blue car,7465.274999995017,familiar,close,sedan.jpg,sportscar.jpg,survey-text,12,182791,adult,NA,NA,8,bluecar
pilot2,adult_11,11,35GMH2SV3F6WI365C5Z0BV48396EOD,long table,9913.035000005038,familiar,close,diningtable.jpg,picnictable.jpg,survey-text,13,193207,adult,NA,NA,10,longtable
pilot2,adult_11,11,35GMH2SV3F6WI365C5Z0BV48396EOD,small bird,15399.36999999918,familiar,close,sparrow.jpg,eagle.jpg,survey-text,14,209111,adult,NA,NA,10,smallbird
pilot2,adult_11,11,35GMH2SV3F6WI365C5Z0BV48396EOD,chocolate candy,5729.625000007218,familiar,close,mnms.jpg,gummybears.jpg,survey-text,15,215343,adult,NA,NA,15,chocolatecandy
pilot2,adult_11,11,35GMH2SV3F6WI365C5Z0BV48396EOD,plain shirt,7864.380000013625,familiar,close,poloshirt.jpg,hawaiishirt.jpg,survey-text,16,223710,adult,NA,NA,11,plainshirt
pilot2,adult_11,11,35GMH2SV3F6WI365C5Z0BV48396EOD,german shepard,3694.2249999847263,familiar,close,germanshepherd.jpg,pug.jpg,survey-text,17,227911,adult,NA,NA,14,germanshepard
pilot2,adult_11,11,35GMH2SV3F6WI365C5Z0BV48396EOD,brown bear,4449.320000014268,familiar,close,grizzlybear.jpg,polarbear.jpg,survey-text,18,232863,adult,NA,NA,10,brownbear
pilot2,adult_11,11,35GMH2SV3F6WI365C5Z0BV48396EOD,goldfish,2920.914999995148,familiar,close,goldfish.jpg,swordfish.jpg,survey-text,19,236287,adult,NA,NA,8,goldfish
pilot2,adult_11,11,35GMH2SV3F6WI365C5Z0BV48396EOD,running,7510.500000003958,tangram,close,tangram-67.jpg,tangram-32.jpg,survey-text,21,249414,adult,NA,NA,7,run
pilot2,adult_11,11,35GMH2SV3F6WI365C5Z0BV48396EOD,fat kick,6166.694999992615,tangram,close,tangram-48.jpg,tangram-187.jpg,survey-text,22,256087,adult,NA,NA,8,fatkick
pilot2,adult_11,11,35GMH2SV3F6WI365C5Z0BV48396EOD,not fall,24420.794999983627,tangram,close,tangram-164.jpg,tangram-183.jpg,survey-text,23,281015,adult,NA,NA,8,notfall
pilot2,adult_11,11,35GMH2SV3F6WI365C5Z0BV48396EOD,no bowl,12678.840000007767,tangram,close,H1.jpg,I1.jpg,survey-text,24,294199,adult,NA,NA,7,nobowl
pilot2,adult_11,11,35GMH2SV3F6WI365C5Z0BV48396EOD,big triangle,37736.13000000478,tangram,close,tangram-90.jpg,tangram-81.jpg,survey-text,25,332439,adult,NA,NA,12,bigtriangle
pilot2,adult_11,11,35GMH2SV3F6WI365C5Z0BV48396EOD,sad man,36634.20500000939,tangram,close,B1.jpg,P1.jpg,survey-text,26,369575,adult,NA,NA,7,sadman
pilot2,adult_11,11,35GMH2SV3F6WI365C5Z0BV48396EOD,arms back,26785.109999997076,tangram,close,tangram-55.jpg,N1.jpg,survey-text,27,396863,adult,NA,NA,9,armback
pilot2,adult_11,11,35GMH2SV3F6WI365C5Z0BV48396EOD,ponytail,10124.305000004824,tangram,close,A2.jpg,tangram-99.jpg,survey-text,28,407494,adult,NA,NA,8,ponytail
pilot2,adult_11,11,35GMH2SV3F6WI365C5Z0BV48396EOD,bear,15233.769999991637,familiar,far,grizzlybear.jpg,lion.jpg,survey-text,30,428471,adult,NA,NA,4,bear
pilot2,adult_11,11,35GMH2SV3F6WI365C5Z0BV48396EOD,shirt,3303.53499998455,familiar,far,poloshirt.jpg,dress.jpg,survey-text,31,432279,adult,NA,NA,5,shirt
pilot2,adult_11,11,35GMH2SV3F6WI365C5Z0BV48396EOD,bird,2542.9000000003725,familiar,far,sparrow.jpg,squirrel.jpg,survey-text,32,435327,adult,NA,NA,4,bird
pilot2,adult_11,11,35GMH2SV3F6WI365C5Z0BV48396EOD,chocolate,6862.829999998212,familiar,far,mnms.jpg,pretzels.jpg,survey-text,33,442695,adult,NA,NA,9,chocolate
pilot2,adult_11,11,35GMH2SV3F6WI365C5Z0BV48396EOD,car,1912.1049999957904,familiar,far,sedan.jpg,firetruck.jpg,survey-text,34,445110,adult,NA,NA,3,car
pilot2,adult_11,11,35GMH2SV3F6WI365C5Z0BV48396EOD,dog,1960.995000001276,familiar,far,germanshepherd.jpg,cow.jpg,survey-text,35,447575,adult,NA,NA,3,dog
pilot2,adult_11,11,35GMH2SV3F6WI365C5Z0BV48396EOD,fish,1977.3450000211596,familiar,far,goldfish.jpg,iguana.jpg,survey-text,36,450055,adult,NA,NA,4,fish
pilot2,adult_11,11,35GMH2SV3F6WI365C5Z0BV48396EOD,table,2928.6949999805074,familiar,far,diningtable.jpg,wardrobe.jpg,survey-text,37,453487,adult,NA,NA,5,table
pilot2,adult_11,11,35GMH2SV3F6WI365C5Z0BV48396EOD,arms wide,10251.010000007229,tangram,isolated,tangram-90.jpg,tangram-81.jpg,survey-text,39,469455,adult,NA,NA,9,armwide
pilot2,adult_11,11,35GMH2SV3F6WI365C5Z0BV48396EOD,running,6598.385000019334,tangram,isolated,tangram-67.jpg,tangram-32.jpg,survey-text,40,476558,adult,NA,NA,7,run
pilot2,adult_11,11,35GMH2SV3F6WI365C5Z0BV48396EOD,kicking,3609.5099999802183,tangram,isolated,tangram-48.jpg,tangram-187.jpg,survey-text,41,480671,adult,NA,NA,7,kick
pilot2,adult_11,11,35GMH2SV3F6WI365C5Z0BV48396EOD,depressed,5310.6099999859,tangram,isolated,B1.jpg,P1.jpg,survey-text,42,486487,adult,NA,NA,9,depress
pilot2,adult_11,11,35GMH2SV3F6WI365C5Z0BV48396EOD,ponytail woman,14703.630000003614,tangram,isolated,A2.jpg,tangram-99.jpg,survey-text,43,501695,adult,NA,NA,14,ponytailwoman
pilot2,adult_11,11,35GMH2SV3F6WI365C5Z0BV48396EOD,naruto run,9761.129999998955,tangram,isolated,tangram-55.jpg,N1.jpg,survey-text,44,511959,adult,NA,NA,10,narutorun
pilot2,adult_11,11,35GMH2SV3F6WI365C5Z0BV48396EOD,squat kick,11657.789999997476,tangram,isolated,tangram-164.jpg,tangram-183.jpg,survey-text,45,524119,adult,NA,NA,10,squatkick
pilot2,adult_11,11,35GMH2SV3F6WI365C5Z0BV48396EOD,palms out,9410.15999999945,tangram,isolated,H1.jpg,I1.jpg,survey-text,46,534032,adult,NA,NA,9,palmout
pilot2,adult_11,11,35GMH2SV3F6WI365C5Z0BV48396EOD,woman standing,12026.06500001275,tangram,far,A2.jpg,C1.jpg,survey-text,48,551902,adult,NA,NA,14,womanstand
pilot2,adult_11,11,35GMH2SV3F6WI365C5Z0BV48396EOD,man begging,7576.83000000543,tangram,far,H1.jpg,tangram-8.jpg,survey-text,49,559982,adult,NA,NA,11,manbeg
pilot2,adult_11,11,35GMH2SV3F6WI365C5Z0BV48396EOD,running,6029.03000000515,tangram,far,tangram-67.jpg,G1.jpg,survey-text,50,566518,adult,NA,NA,7,run
pilot2,adult_11,11,35GMH2SV3F6WI365C5Z0BV48396EOD,arms spread,4406.580000009853,tangram,far,tangram-90.jpg,tangram-120.jpg,survey-text,51,571430,adult,NA,NA,11,armspread
pilot2,adult_11,11,35GMH2SV3F6WI365C5Z0BV48396EOD,kicking,3488.589999993565,tangram,far,tangram-48.jpg,D1.jpg,survey-text,52,575422,adult,NA,NA,7,kick
pilot2,adult_11,11,35GMH2SV3F6WI365C5Z0BV48396EOD,depressed,2524.780000007013,tangram,far,B1.jpg,tangram-4.jpg,survey-text,53,578454,adult,NA,NA,9,depress
pilot2,adult_11,11,35GMH2SV3F6WI365C5Z0BV48396EOD,running,8010.160000005271,tangram,far,tangram-55.jpg,tangram-143.jpg,survey-text,54,586966,adult,NA,NA,7,run
pilot2,adult_11,11,35GMH2SV3F6WI365C5Z0BV48396EOD,squat,4886.544999986654,tangram,far,tangram-164.jpg,tangram-64.jpg,survey-text,55,592358,adult,NA,NA,5,squat
pilot2,adult_12,12,3AZHRG4CU5985OYPL0GT234TEMO03G,bird,7239.999999990687,familiar,far,sparrow.jpg,squirrel.jpg,survey-text,3,34470,adult,NA,NA,4,bird
pilot2,adult_12,12,3AZHRG4CU5985OYPL0GT234TEMO03G,bear,5092.999999877065,familiar,far,grizzlybear.jpg,lion.jpg,survey-text,4,40082,adult,NA,NA,4,bear
pilot2,adult_12,12,3AZHRG4CU5985OYPL0GT234TEMO03G,car,2868.000000016764,familiar,far,sedan.jpg,firetruck.jpg,survey-text,5,43456,adult,NA,NA,3,car
pilot2,adult_12,12,3AZHRG4CU5985OYPL0GT234TEMO03G,table,5949.000000022352,familiar,far,diningtable.jpg,wardrobe.jpg,survey-text,6,49913,adult,NA,NA,5,table
pilot2,adult_12,12,3AZHRG4CU5985OYPL0GT234TEMO03G,dog,2813.0000000819564,familiar,far,germanshepherd.jpg,cow.jpg,survey-text,7,53232,adult,NA,NA,3,dog
pilot2,adult_12,12,3AZHRG4CU5985OYPL0GT234TEMO03G,shirt,4510.999999940395,familiar,far,poloshirt.jpg,dress.jpg,survey-text,8,58249,adult,NA,NA,5,shirt
pilot2,adult_12,12,3AZHRG4CU5985OYPL0GT234TEMO03G,fish,3570.0000000651926,familiar,far,goldfish.jpg,iguana.jpg,survey-text,9,62338,adult,NA,NA,4,fish
pilot2,adult_12,12,3AZHRG4CU5985OYPL0GT234TEMO03G,mnms,4507.999999914318,familiar,far,mnms.jpg,pretzels.jpg,survey-text,10,67365,adult,NA,NA,4,mnms
pilot2,adult_12,12,3AZHRG4CU5985OYPL0GT234TEMO03G,plain tshirt,9205.000000074506,familiar,close,poloshirt.jpg,hawaiishirt.jpg,survey-text,12,81158,adult,NA,NA,12,plaintshirt
pilot2,adult_12,12,3AZHRG4CU5985OYPL0GT234TEMO03G,golden fish,5811.999999918044,familiar,close,goldfish.jpg,swordfish.jpg,survey-text,13,87483,adult,NA,NA,11,goldenfish
pilot2,adult_12,12,3AZHRG4CU5985OYPL0GT234TEMO03G,brown bear,5921.000000089407,familiar,close,grizzlybear.jpg,polarbear.jpg,survey-text,14,93938,adult,NA,NA,10,brownbear
pilot2,adult_12,12,3AZHRG4CU5985OYPL0GT234TEMO03G,table,3653.999999864027,familiar,close,diningtable.jpg,picnictable.jpg,survey-text,15,98106,adult,NA,NA,5,table
pilot2,adult_12,12,3AZHRG4CU5985OYPL0GT234TEMO03G,german shephard,6716.999999945983,familiar,close,germanshepherd.jpg,pug.jpg,survey-text,16,105329,adult,NA,NA,15,germanshephard
pilot2,adult_12,12,3AZHRG4CU5985OYPL0GT234TEMO03G,bird,5685.9999999869615,familiar,close,sparrow.jpg,eagle.jpg,survey-text,17,111632,adult,NA,NA,4,bird
pilot2,adult_12,12,3AZHRG4CU5985OYPL0GT234TEMO03G,car,4923.999999882653,familiar,close,sedan.jpg,sportscar.jpg,survey-text,18,117059,adult,NA,NA,3,car
pilot2,adult_12,12,3AZHRG4CU5985OYPL0GT234TEMO03G,mnms,3596.000000135973,familiar,close,mnms.jpg,gummybears.jpg,survey-text,19,121163,adult,NA,NA,4,mnms
pilot2,adult_12,12,3AZHRG4CU5985OYPL0GT234TEMO03G,running,7488.999999826774,tangram,close,tangram-90.jpg,tangram-81.jpg,survey-text,21,133532,adult,NA,NA,7,run
pilot2,adult_12,12,3AZHRG4CU5985OYPL0GT234TEMO03G,holding something,6165.000000037253,tangram,close,H1.jpg,I1.jpg,survey-text,22,140214,adult,NA,NA,17,holdsomething
pilot2,adult_12,12,3AZHRG4CU5985OYPL0GT234TEMO03G,running fast,4387.000000104308,tangram,close,tangram-55.jpg,N1.jpg,survey-text,23,145108,adult,NA,NA,12,runfast
pilot2,adult_12,12,3AZHRG4CU5985OYPL0GT234TEMO03G,walking,5597.999999998137,tangram,close,A2.jpg,tangram-99.jpg,survey-text,24,151225,adult,NA,NA,7,walk
pilot2,adult_12,12,3AZHRG4CU5985OYPL0GT234TEMO03G,falling,3013.0000000353903,tangram,close,tangram-164.jpg,tangram-183.jpg,survey-text,25,154744,adult,NA,NA,7,fall
pilot2,adult_12,12,3AZHRG4CU5985OYPL0GT234TEMO03G,looking down,6128.000000026077,tangram,close,B1.jpg,P1.jpg,survey-text,26,161377,adult,NA,NA,12,lookdown
pilot2,adult_12,12,3AZHRG4CU5985OYPL0GT234TEMO03G,enjoying,3658.0000000540167,tangram,close,tangram-48.jpg,tangram-187.jpg,survey-text,27,165550,adult,NA,NA,8,enjoy
pilot2,adult_12,12,3AZHRG4CU5985OYPL0GT234TEMO03G,running,3883.000000147149,tangram,close,tangram-67.jpg,tangram-32.jpg,survey-text,28,169940,adult,NA,NA,7,run
pilot2,adult_12,12,3AZHRG4CU5985OYPL0GT234TEMO03G,holding,4019.000000087544,tangram,far,H1.jpg,tangram-8.jpg,survey-text,30,178225,adult,NA,NA,7,hold
pilot2,adult_12,12,3AZHRG4CU5985OYPL0GT234TEMO03G,falling,2820.0000000651926,tangram,far,tangram-164.jpg,tangram-64.jpg,survey-text,31,181551,adult,NA,NA,7,fall
pilot2,adult_12,12,3AZHRG4CU5985OYPL0GT234TEMO03G,waling,2925.000000046566,tangram,far,B1.jpg,tangram-4.jpg,survey-text,32,184992,adult,NA,NA,6,wale
pilot2,adult_12,12,3AZHRG4CU5985OYPL0GT234TEMO03G,rnning,1783.0000000540167,tangram,far,tangram-55.jpg,tangram-143.jpg,survey-text,33,187290,adult,NA,NA,6,rnning
pilot2,adult_12,12,3AZHRG4CU5985OYPL0GT234TEMO03G,running,4208.999999798834,tangram,far,tangram-48.jpg,D1.jpg,survey-text,34,192014,adult,NA,NA,7,run
pilot2,adult_12,12,3AZHRG4CU5985OYPL0GT234TEMO03G,walking,2618.000000016764,tangram,far,A2.jpg,C1.jpg,survey-text,35,195142,adult,NA,NA,7,walk
pilot2,adult_12,12,3AZHRG4CU5985OYPL0GT234TEMO03G,running,3508.000000147149,tangram,far,tangram-67.jpg,G1.jpg,survey-text,36,199166,adult,NA,NA,7,run
pilot2,adult_12,12,3AZHRG4CU5985OYPL0GT234TEMO03G,walking,3647.000000113622,tangram,far,tangram-90.jpg,tangram-120.jpg,survey-text,37,203331,adult,NA,NA,7,walk
pilot2,adult_12,12,3AZHRG4CU5985OYPL0GT234TEMO03G,walking,4600.000000093132,tangram,isolated,B1.jpg,P1.jpg,survey-text,39,215587,adult,NA,NA,7,walk
pilot2,adult_12,12,3AZHRG4CU5985OYPL0GT234TEMO03G,walking fast,4857.000000076368,tangram,isolated,tangram-90.jpg,tangram-81.jpg,survey-text,40,220956,adult,NA,NA,12,walkfast
pilot2,adult_12,12,3AZHRG4CU5985OYPL0GT234TEMO03G,running,2748.9999998360872,tangram,isolated,tangram-55.jpg,N1.jpg,survey-text,41,224210,adult,NA,NA,7,run
pilot2,adult_12,12,3AZHRG4CU5985OYPL0GT234TEMO03G,walking,2718.9999998081475,tangram,isolated,A2.jpg,tangram-99.jpg,survey-text,42,227450,adult,NA,NA,7,walk
pilot2,adult_12,12,3AZHRG4CU5985OYPL0GT234TEMO03G,running,2071.999999927357,tangram,isolated,tangram-67.jpg,tangram-32.jpg,survey-text,43,230055,adult,NA,NA,7,run
pilot2,adult_12,12,3AZHRG4CU5985OYPL0GT234TEMO03G,parade,12445.999999996277,tangram,isolated,tangram-48.jpg,tangram-187.jpg,survey-text,44,243014,adult,NA,NA,6,parade
pilot2,adult_12,12,3AZHRG4CU5985OYPL0GT234TEMO03G,holding something,12073.00000009127,tangram,isolated,H1.jpg,I1.jpg,survey-text,45,255598,adult,NA,NA,17,holdsomething
pilot2,adult_12,12,3AZHRG4CU5985OYPL0GT234TEMO03G,falling,2797.999999951571,tangram,isolated,tangram-164.jpg,tangram-183.jpg,survey-text,46,258918,adult,NA,NA,7,fall
pilot2,adult_12,12,3AZHRG4CU5985OYPL0GT234TEMO03G,tshirt,5040.000000037253,familiar,isolated,poloshirt.jpg,hawaiishirt.jpg,survey-text,48,268548,adult,NA,NA,6,tshirt
pilot2,adult_12,12,3AZHRG4CU5985OYPL0GT234TEMO03G,dog,2989.0000000596046,familiar,isolated,germanshepherd.jpg,pug.jpg,survey-text,49,272052,adult,NA,NA,3,dog
pilot2,adult_12,12,3AZHRG4CU5985OYPL0GT234TEMO03G,bird,2527.999999932945,familiar,isolated,sparrow.jpg,eagle.jpg,survey-text,50,275092,adult,NA,NA,4,bird
pilot2,adult_12,12,3AZHRG4CU5985OYPL0GT234TEMO03G,car,1765.0000001303852,familiar,isolated,sedan.jpg,sportscar.jpg,survey-text,51,277383,adult,NA,NA,3,car
pilot2,adult_12,12,3AZHRG4CU5985OYPL0GT234TEMO03G,table,2206.000000005588,familiar,isolated,diningtable.jpg,picnictable.jpg,survey-text,52,280117,adult,NA,NA,5,table
pilot2,adult_12,12,3AZHRG4CU5985OYPL0GT234TEMO03G,bear,1871.0000000428408,familiar,isolated,grizzlybear.jpg,polarbear.jpg,survey-text,53,282494,adult,NA,NA,4,bear
pilot2,adult_12,12,3AZHRG4CU5985OYPL0GT234TEMO03G,mnms,2435.9999999869615,familiar,isolated,mnms.jpg,gummybears.jpg,survey-text,54,285464,adult,NA,NA,4,mnms
pilot2,adult_12,12,3AZHRG4CU5985OYPL0GT234TEMO03G,fish,3173.999999882654,familiar,isolated,goldfish.jpg,swordfish.jpg,survey-text,55,289164,adult,NA,NA,4,fish
pilot2,adult_13,13,3HHRAGRYX9UFN7FO4UJEJH3XCCTO9G,man,5883.505000034347,tangram,isolated,tangram-90.jpg,tangram-81.jpg,survey-text,3,63751,adult,NA,NA,3,man
pilot2,adult_13,13,3HHRAGRYX9UFN7FO4UJEJH3XCCTO9G,soldier,6297.064999991562,tangram,isolated,tangram-48.jpg,tangram-187.jpg,survey-text,4,70555,adult,NA,NA,7,soldier
pilot2,adult_13,13,3HHRAGRYX9UFN7FO4UJEJH3XCCTO9G,priest,3103.7300000316463,tangram,isolated,H1.jpg,I1.jpg,survey-text,5,74177,adult,NA,NA,6,priest
pilot2,adult_13,13,3HHRAGRYX9UFN7FO4UJEJH3XCCTO9G,jogger,2843.479999981355,tangram,isolated,tangram-67.jpg,tangram-32.jpg,survey-text,6,77525,adult,NA,NA,6,jogger
pilot2,adult_13,13,3HHRAGRYX9UFN7FO4UJEJH3XCCTO9G,soccer player,3794.279999972787,tangram,isolated,tangram-164.jpg,tangram-183.jpg,survey-text,7,81827,adult,NA,NA,13,soccerplayer
pilot2,adult_13,13,3HHRAGRYX9UFN7FO4UJEJH3XCCTO9G,grandpa,6266.79999998305,tangram,isolated,B1.jpg,P1.jpg,survey-text,8,88607,adult,NA,NA,7,grandpa
pilot2,adult_13,13,3HHRAGRYX9UFN7FO4UJEJH3XCCTO9G,young woman,5446.929999976419,tangram,isolated,A2.jpg,tangram-99.jpg,survey-text,9,94569,adult,NA,NA,11,youngwoman
pilot2,adult_13,13,3HHRAGRYX9UFN7FO4UJEJH3XCCTO9G,robber,5089.320000028238,tangram,isolated,tangram-55.jpg,N1.jpg,survey-text,10,100161,adult,NA,NA,6,robber
pilot2,adult_13,13,3HHRAGRYX9UFN7FO4UJEJH3XCCTO9G,goldfish,4945.055000018328,familiar,close,goldfish.jpg,swordfish.jpg,survey-text,12,110916,adult,NA,NA,8,goldfish
pilot2,adult_13,13,3HHRAGRYX9UFN7FO4UJEJH3XCCTO9G,big dog,3852.749999961816,familiar,close,germanshepherd.jpg,pug.jpg,survey-text,13,115273,adult,NA,NA,7,bigdog
pilot2,adult_13,13,3HHRAGRYX9UFN7FO4UJEJH3XCCTO9G,solid,3999.260000011418,familiar,close,poloshirt.jpg,hawaiishirt.jpg,survey-text,14,119788,adult,NA,NA,5,solid
pilot2,adult_13,13,3HHRAGRYX9UFN7FO4UJEJH3XCCTO9G,small,3839.3799999612384,familiar,close,sparrow.jpg,eagle.jpg,survey-text,15,124137,adult,NA,NA,5,small
pilot2,adult_13,13,3HHRAGRYX9UFN7FO4UJEJH3XCCTO9G,chocolate,3795.289999980014,familiar,close,mnms.jpg,gummybears.jpg,survey-text,16,128439,adult,NA,NA,9,chocolate
pilot2,adult_13,13,3HHRAGRYX9UFN7FO4UJEJH3XCCTO9G,long table,5736.949999991339,familiar,close,diningtable.jpg,picnictable.jpg,survey-text,17,134698,adult,NA,NA,10,longtable
pilot2,adult_13,13,3HHRAGRYX9UFN7FO4UJEJH3XCCTO9G,brown,5412.615000037476,familiar,close,grizzlybear.jpg,polarbear.jpg,survey-text,18,140614,adult,NA,NA,5,brown
pilot2,adult_13,13,3HHRAGRYX9UFN7FO4UJEJH3XCCTO9G,blue,3209.08000000054,familiar,close,sedan.jpg,sportscar.jpg,survey-text,19,144329,adult,NA,NA,4,blue
pilot2,adult_13,13,3HHRAGRYX9UFN7FO4UJEJH3XCCTO9G,kicker,9134.354999987409,tangram,close,tangram-164.jpg,tangram-183.jpg,survey-text,21,158033,adult,NA,NA,6,kicker
pilot2,adult_13,13,3HHRAGRYX9UFN7FO4UJEJH3XCCTO9G,hurdle jump,12684.530000027737,tangram,close,tangram-48.jpg,tangram-187.jpg,survey-text,22,171223,adult,NA,NA,11,hurdlejump
pilot2,adult_13,13,3HHRAGRYX9UFN7FO4UJEJH3XCCTO9G,faster,6292.385000037029,tangram,close,tangram-55.jpg,N1.jpg,survey-text,23,178021,adult,NA,NA,6,fast
pilot2,adult_13,13,3HHRAGRYX9UFN7FO4UJEJH3XCCTO9G,ponytail,9915.590000047814,tangram,close,A2.jpg,tangram-99.jpg,survey-text,24,188447,adult,NA,NA,8,ponytail
pilot2,adult_13,13,3HHRAGRYX9UFN7FO4UJEJH3XCCTO9G,long strides,4967.195000033826,tangram,close,tangram-67.jpg,tangram-32.jpg,survey-text,25,193923,adult,NA,NA,12,longstride
pilot2,adult_13,13,3HHRAGRYX9UFN7FO4UJEJH3XCCTO9G,triangle,5425.9600000223145,tangram,close,tangram-90.jpg,tangram-81.jpg,survey-text,26,199853,adult,NA,NA,8,triangle
pilot2,adult_13,13,3HHRAGRYX9UFN7FO4UJEJH3XCCTO9G,kneeling,5692.549999977928,tangram,close,H1.jpg,I1.jpg,survey-text,27,206063,adult,NA,NA,8,kneel
pilot2,adult_13,13,3HHRAGRYX9UFN7FO4UJEJH3XCCTO9G,sad,3894.199999980629,tangram,close,B1.jpg,P1.jpg,survey-text,28,210467,adult,NA,NA,3,sad
pilot2,adult_13,13,3HHRAGRYX9UFN7FO4UJEJH3XCCTO9G,goldfish,2873.260000022128,familiar,far,goldfish.jpg,iguana.jpg,survey-text,30,216814,adult,NA,NA,8,goldfish
pilot2,adult_13,13,3HHRAGRYX9UFN7FO4UJEJH3XCCTO9G,bird,2075.2249999786727,familiar,far,sparrow.jpg,squirrel.jpg,survey-text,31,219402,adult,NA,NA,4,bird
pilot2,adult_13,13,3HHRAGRYX9UFN7FO4UJEJH3XCCTO9G,polo,1961.0600000014529,familiar,far,poloshirt.jpg,dress.jpg,survey-text,32,221884,adult,NA,NA,4,polo
pilot2,adult_13,13,3HHRAGRYX9UFN7FO4UJEJH3XCCTO9G,table,1717.8949999506583,familiar,far,diningtable.jpg,wardrobe.jpg,survey-text,33,224110,adult,NA,NA,5,table
pilot2,adult_13,13,3HHRAGRYX9UFN7FO4UJEJH3XCCTO9G,car,1469.6899999980817,familiar,far,sedan.jpg,firetruck.jpg,survey-text,34,226087,adult,NA,NA,3,car
pilot2,adult_13,13,3HHRAGRYX9UFN7FO4UJEJH3XCCTO9G,dog,3254.944999993313,familiar,far,germanshepherd.jpg,cow.jpg,survey-text,35,229864,adult,NA,NA,3,dog
pilot2,adult_13,13,3HHRAGRYX9UFN7FO4UJEJH3XCCTO9G,bear,1583.770000026561,familiar,far,grizzlybear.jpg,lion.jpg,survey-text,36,231966,adult,NA,NA,4,bear
pilot2,adult_13,13,3HHRAGRYX9UFN7FO4UJEJH3XCCTO9G,chocolate,2173.8749999785796,familiar,far,mnms.jpg,pretzels.jpg,survey-text,37,234657,adult,NA,NA,9,chocolate
pilot2,adult_13,13,3HHRAGRYX9UFN7FO4UJEJH3XCCTO9G,sad walking,20585.785000002943,tangram,far,B1.jpg,tangram-4.jpg,survey-text,39,257503,adult,NA,NA,11,sadwalk
pilot2,adult_13,13,3HHRAGRYX9UFN7FO4UJEJH3XCCTO9G,running,2493.654999998398,tangram,far,tangram-67.jpg,G1.jpg,survey-text,40,260511,adult,NA,NA,7,run
pilot2,adult_13,13,3HHRAGRYX9UFN7FO4UJEJH3XCCTO9G,girl walking,2797.3699999856763,tangram,far,A2.jpg,C1.jpg,survey-text,41,263830,adult,NA,NA,12,girlwalk
pilot2,adult_13,13,3HHRAGRYX9UFN7FO4UJEJH3XCCTO9G,kicking,2507.034999958705,tangram,far,tangram-48.jpg,D1.jpg,survey-text,42,266852,adult,NA,NA,7,kick
pilot2,adult_13,13,3HHRAGRYX9UFN7FO4UJEJH3XCCTO9G,dashing,1869.379999989178,tangram,far,tangram-55.jpg,tangram-143.jpg,survey-text,43,269237,adult,NA,NA,7,dash
pilot2,adult_13,13,3HHRAGRYX9UFN7FO4UJEJH3XCCTO9G,arms out,7303.145000012592,tangram,far,tangram-90.jpg,tangram-120.jpg,survey-text,44,277051,adult,NA,NA,8,armout
pilot2,adult_13,13,3HHRAGRYX9UFN7FO4UJEJH3XCCTO9G,kicking,2065.195000031963,tangram,far,tangram-164.jpg,tangram-64.jpg,survey-text,45,279625,adult,NA,NA,7,kick
pilot2,adult_13,13,3HHRAGRYX9UFN7FO4UJEJH3XCCTO9G,kneeling,2271.535000007134,tangram,far,H1.jpg,tangram-8.jpg,survey-text,46,282407,adult,NA,NA,8,kneel
pilot2,adult_13,13,3HHRAGRYX9UFN7FO4UJEJH3XCCTO9G,polo,3960.725000011734,familiar,isolated,poloshirt.jpg,hawaiishirt.jpg,survey-text,48,288566,adult,NA,NA,4,polo
pilot2,adult_13,13,3HHRAGRYX9UFN7FO4UJEJH3XCCTO9G,goldfish,3845.345000037923,familiar,isolated,goldfish.jpg,swordfish.jpg,survey-text,49,292931,adult,NA,NA,8,goldfish
pilot2,adult_13,13,3HHRAGRYX9UFN7FO4UJEJH3XCCTO9G,car,1782.759999972768,familiar,isolated,sedan.jpg,sportscar.jpg,survey-text,50,295224,adult,NA,NA,3,car
pilot2,adult_13,13,3HHRAGRYX9UFN7FO4UJEJH3XCCTO9G,bear,1267.4400000250898,familiar,isolated,grizzlybear.jpg,polarbear.jpg,survey-text,51,297011,adult,NA,NA,4,bear
pilot2,adult_13,13,3HHRAGRYX9UFN7FO4UJEJH3XCCTO9G,table,1400.8250000188127,familiar,isolated,diningtable.jpg,picnictable.jpg,survey-text,52,298925,adult,NA,NA,5,table
pilot2,adult_13,13,3HHRAGRYX9UFN7FO4UJEJH3XCCTO9G,chocolate,1982.1000000229103,familiar,isolated,mnms.jpg,gummybears.jpg,survey-text,53,301429,adult,NA,NA,9,chocolate
pilot2,adult_13,13,3HHRAGRYX9UFN7FO4UJEJH3XCCTO9G,dog,1431.1249999445863,familiar,isolated,germanshepherd.jpg,pug.jpg,survey-text,54,303375,adult,NA,NA,3,dog
pilot2,adult_13,13,3HHRAGRYX9UFN7FO4UJEJH3XCCTO9G,bird,1429.6549999853596,familiar,isolated,sparrow.jpg,eagle.jpg,survey-text,55,305318,adult,NA,NA,4,bird
pilot2,adult_14,14,326O153BMJN5E6FGMWLK01S9ZV0EDH,dog,7023.915000259876,familiar,isolated,germanshepherd.jpg,pug.jpg,survey-text,3,27860,adult,NA,NA,3,dog
pilot2,adult_14,14,326O153BMJN5E6FGMWLK01S9ZV0EDH,table,4183.16000001505,familiar,isolated,diningtable.jpg,picnictable.jpg,survey-text,4,32548,adult,NA,NA,5,table
pilot2,adult_14,14,326O153BMJN5E6FGMWLK01S9ZV0EDH,candy,4141.414999961853,familiar,isolated,mnms.jpg,gummybears.jpg,survey-text,5,37196,adult,NA,NA,5,candy
pilot2,adult_14,14,326O153BMJN5E6FGMWLK01S9ZV0EDH,bear,3330.1949999295175,familiar,isolated,grizzlybear.jpg,polarbear.jpg,survey-text,6,41032,adult,NA,NA,4,bear
pilot2,adult_14,14,326O153BMJN5E6FGMWLK01S9ZV0EDH,shirt,2962.5099999830127,familiar,isolated,poloshirt.jpg,hawaiishirt.jpg,survey-text,7,44499,adult,NA,NA,5,shirt
pilot2,adult_14,14,326O153BMJN5E6FGMWLK01S9ZV0EDH,bird,3985.069999936968,familiar,isolated,sparrow.jpg,eagle.jpg,survey-text,8,48992,adult,NA,NA,4,bird
pilot2,adult_14,14,326O153BMJN5E6FGMWLK01S9ZV0EDH,car,2900.439999997616,familiar,isolated,sedan.jpg,sportscar.jpg,survey-text,9,52405,adult,NA,NA,3,car
pilot2,adult_14,14,326O153BMJN5E6FGMWLK01S9ZV0EDH,fish,2105.934999883175,familiar,isolated,goldfish.jpg,swordfish.jpg,survey-text,10,55025,adult,NA,NA,4,fish
pilot2,adult_14,14,326O153BMJN5E6FGMWLK01S9ZV0EDH,candy,5406.99000004679,familiar,far,mnms.jpg,pretzels.jpg,survey-text,12,67978,adult,NA,NA,5,candy
pilot2,adult_14,14,326O153BMJN5E6FGMWLK01S9ZV0EDH,dog,2490.100000053644,familiar,far,germanshepherd.jpg,cow.jpg,survey-text,13,70977,adult,NA,NA,3,dog
pilot2,adult_14,14,326O153BMJN5E6FGMWLK01S9ZV0EDH,table,2626.575000118464,familiar,far,diningtable.jpg,wardrobe.jpg,survey-text,14,74116,adult,NA,NA,5,table
pilot2,adult_14,14,326O153BMJN5E6FGMWLK01S9ZV0EDH,bear,2048.0900001712143,familiar,far,grizzlybear.jpg,lion.jpg,survey-text,15,76672,adult,NA,NA,4,bear
pilot2,adult_14,14,326O153BMJN5E6FGMWLK01S9ZV0EDH,car,2391.3150001317263,familiar,far,sedan.jpg,firetruck.jpg,survey-text,16,79579,adult,NA,NA,3,car
pilot2,adult_14,14,326O153BMJN5E6FGMWLK01S9ZV0EDH,shirt,2354.674999602139,familiar,far,poloshirt.jpg,dress.jpg,survey-text,17,82447,adult,NA,NA,5,shirt
pilot2,adult_14,14,326O153BMJN5E6FGMWLK01S9ZV0EDH,bird,2078.6599996499717,familiar,far,sparrow.jpg,squirrel.jpg,survey-text,18,85035,adult,NA,NA,4,bird
pilot2,adult_14,14,326O153BMJN5E6FGMWLK01S9ZV0EDH,fish,2162.324999924749,familiar,far,goldfish.jpg,iguana.jpg,survey-text,19,87707,adult,NA,NA,4,fish
pilot2,adult_14,14,326O153BMJN5E6FGMWLK01S9ZV0EDH,man,4354.904999956489,tangram,close,tangram-90.jpg,tangram-81.jpg,survey-text,21,100211,adult,NA,NA,3,man
pilot2,adult_14,14,326O153BMJN5E6FGMWLK01S9ZV0EDH,running,6636.000000406057,tangram,close,tangram-67.jpg,tangram-32.jpg,survey-text,22,107356,adult,NA,NA,7,run
pilot2,adult_14,14,326O153BMJN5E6FGMWLK01S9ZV0EDH,kicking,2997.8450001217425,tangram,close,tangram-48.jpg,tangram-187.jpg,survey-text,23,110860,adult,NA,NA,7,kick
pilot2,adult_14,14,326O153BMJN5E6FGMWLK01S9ZV0EDH,walking,3053.6400000564754,tangram,close,A2.jpg,tangram-99.jpg,survey-text,24,114427,adult,NA,NA,7,walk
pilot2,adult_14,14,326O153BMJN5E6FGMWLK01S9ZV0EDH,sprinting,6051.074999850243,tangram,close,tangram-55.jpg,N1.jpg,survey-text,25,120993,adult,NA,NA,9,sprint
pilot2,adult_14,14,326O153BMJN5E6FGMWLK01S9ZV0EDH,falling,2834.0949998237193,tangram,close,tangram-164.jpg,tangram-183.jpg,survey-text,26,124331,adult,NA,NA,7,fall
pilot2,adult_14,14,326O153BMJN5E6FGMWLK01S9ZV0EDH,holding,3171.5500000864267,tangram,close,H1.jpg,I1.jpg,survey-text,27,128015,adult,NA,NA,7,hold
pilot2,adult_14,14,326O153BMJN5E6FGMWLK01S9ZV0EDH,walking,3627.694999799132,tangram,close,B1.jpg,P1.jpg,survey-text,28,132155,adult,NA,NA,7,walk
pilot2,adult_14,14,326O153BMJN5E6FGMWLK01S9ZV0EDH,table,1933.1799997016788,familiar,close,diningtable.jpg,picnictable.jpg,survey-text,30,137354,adult,NA,NA,5,table
pilot2,adult_14,14,326O153BMJN5E6FGMWLK01S9ZV0EDH,candy,2028.854999691248,familiar,close,mnms.jpg,gummybears.jpg,survey-text,31,139891,adult,NA,NA,5,candy
pilot2,adult_14,14,326O153BMJN5E6FGMWLK01S9ZV0EDH,shirt,2441.739999689162,familiar,close,poloshirt.jpg,hawaiishirt.jpg,survey-text,32,142843,adult,NA,NA,5,shirt
pilot2,adult_14,14,326O153BMJN5E6FGMWLK01S9ZV0EDH,car,1656.5350000746548,familiar,close,sedan.jpg,sportscar.jpg,survey-text,33,145007,adult,NA,NA,3,car
pilot2,adult_14,14,326O153BMJN5E6FGMWLK01S9ZV0EDH,bird,1915.5399999581275,familiar,close,sparrow.jpg,eagle.jpg,survey-text,34,147435,adult,NA,NA,4,bird
pilot2,adult_14,14,326O153BMJN5E6FGMWLK01S9ZV0EDH,fish,2808.654999826103,familiar,close,goldfish.jpg,swordfish.jpg,survey-text,35,150758,adult,NA,NA,4,fish
pilot2,adult_14,14,326O153BMJN5E6FGMWLK01S9ZV0EDH,dog,2230.655000079423,familiar,close,germanshepherd.jpg,pug.jpg,survey-text,36,153497,adult,NA,NA,3,dog
pilot2,adult_14,14,326O153BMJN5E6FGMWLK01S9ZV0EDH,bear,3172.1999999135733,familiar,close,grizzlybear.jpg,polarbear.jpg,survey-text,37,157177,adult,NA,NA,4,bear
pilot2,adult_14,14,326O153BMJN5E6FGMWLK01S9ZV0EDH,running,3844.9550000950694,tangram,far,tangram-55.jpg,tangram-143.jpg,survey-text,39,168110,adult,NA,NA,7,run
pilot2,adult_14,14,326O153BMJN5E6FGMWLK01S9ZV0EDH,running,2974.18999997899,tangram,far,tangram-67.jpg,G1.jpg,survey-text,40,171594,adult,NA,NA,7,run
pilot2,adult_14,14,326O153BMJN5E6FGMWLK01S9ZV0EDH,walking,3097.6050002500415,tangram,far,B1.jpg,tangram-4.jpg,survey-text,41,175200,adult,NA,NA,7,walk
pilot2,adult_14,14,326O153BMJN5E6FGMWLK01S9ZV0EDH,falling,3141.8849998153746,tangram,far,tangram-164.jpg,tangram-64.jpg,survey-text,42,178851,adult,NA,NA,7,fall
pilot2,adult_14,14,326O153BMJN5E6FGMWLK01S9ZV0EDH,walking,2661.4899998530746,tangram,far,A2.jpg,C1.jpg,survey-text,43,182019,adult,NA,NA,7,walk
pilot2,adult_14,14,326O153BMJN5E6FGMWLK01S9ZV0EDH,holding,3044.040000066161,tangram,far,H1.jpg,tangram-8.jpg,survey-text,44,185575,adult,NA,NA,7,hold
pilot2,adult_14,14,326O153BMJN5E6FGMWLK01S9ZV0EDH,walking,5500.950000248849,tangram,far,tangram-90.jpg,tangram-120.jpg,survey-text,45,191584,adult,NA,NA,7,walk
pilot2,adult_14,14,326O153BMJN5E6FGMWLK01S9ZV0EDH,kicking,2220.329999923706,tangram,far,tangram-48.jpg,D1.jpg,survey-text,46,194314,adult,NA,NA,7,kick
pilot2,adult_14,14,326O153BMJN5E6FGMWLK01S9ZV0EDH,running,4845.600000116974,tangram,isolated,tangram-67.jpg,tangram-32.jpg,survey-text,48,202626,adult,NA,NA,7,run
pilot2,adult_14,14,326O153BMJN5E6FGMWLK01S9ZV0EDH,walking,2621.034999843687,tangram,isolated,tangram-90.jpg,tangram-81.jpg,survey-text,49,205760,adult,NA,NA,7,walk
pilot2,adult_14,14,326O153BMJN5E6FGMWLK01S9ZV0EDH,walking,2729.354999959469,tangram,isolated,B1.jpg,P1.jpg,survey-text,50,208998,adult,NA,NA,7,walk
pilot2,adult_14,14,326O153BMJN5E6FGMWLK01S9ZV0EDH,kicking,2319.0549998544157,tangram,isolated,tangram-48.jpg,tangram-187.jpg,survey-text,51,211826,adult,NA,NA,7,kick
pilot2,adult_14,14,326O153BMJN5E6FGMWLK01S9ZV0EDH,walking,2040.5100001953545,tangram,isolated,A2.jpg,tangram-99.jpg,survey-text,52,214382,adult,NA,NA,7,walk
pilot2,adult_14,14,326O153BMJN5E6FGMWLK01S9ZV0EDH,falling,2105.7850001379848,tangram,isolated,tangram-164.jpg,tangram-183.jpg,survey-text,53,216999,adult,NA,NA,7,fall
pilot2,adult_14,14,326O153BMJN5E6FGMWLK01S9ZV0EDH,holding,2126.2050000950694,tangram,isolated,H1.jpg,I1.jpg,survey-text,54,219638,adult,NA,NA,7,hold
pilot2,adult_14,14,326O153BMJN5E6FGMWLK01S9ZV0EDH,running,2439.790000207722,tangram,isolated,tangram-55.jpg,N1.jpg,survey-text,55,222587,adult,NA,NA,7,run
pilot2,adult_15,15,3AMW0RGHOERIX9VJK4FYQI37R6RNPG,right kick,12635.340000037104,tangram,close,tangram-164.jpg,tangram-183.jpg,survey-text,3,22778,adult,NA,NA,10,rightkick
pilot2,adult_15,15,3AMW0RGHOERIX9VJK4FYQI37R6RNPG,upright,6882.489999989048,tangram,close,H1.jpg,I1.jpg,survey-text,4,30168,adult,NA,NA,7,upright
pilot2,adult_15,15,3AMW0RGHOERIX9VJK4FYQI37R6RNPG,left kick,4111.024999991059,tangram,close,tangram-48.jpg,tangram-187.jpg,survey-text,5,34786,adult,NA,NA,9,leavekick
pilot2,adult_15,15,3AMW0RGHOERIX9VJK4FYQI37R6RNPG,right rush,3704.1550000431016,tangram,close,tangram-55.jpg,N1.jpg,survey-text,6,38994,adult,NA,NA,10,rightrush
pilot2,adult_15,15,3AMW0RGHOERIX9VJK4FYQI37R6RNPG,left throw,4914.0750000369735,tangram,close,A2.jpg,tangram-99.jpg,survey-text,7,44414,adult,NA,NA,10,leavethrow
pilot2,adult_15,15,3AMW0RGHOERIX9VJK4FYQI37R6RNPG,right jump,6538.529999961611,tangram,close,tangram-67.jpg,tangram-32.jpg,survey-text,8,51459,adult,NA,NA,10,rightjump
pilot2,adult_15,15,3AMW0RGHOERIX9VJK4FYQI37R6RNPG,left down,3138.800000015181,tangram,close,B1.jpg,P1.jpg,survey-text,9,55105,adult,NA,NA,9,leavedown
pilot2,adult_15,15,3AMW0RGHOERIX9VJK4FYQI37R6RNPG,open wide,5990.455000021029,tangram,close,tangram-90.jpg,tangram-81.jpg,survey-text,10,61602,adult,NA,NA,9,openwide
pilot2,adult_15,15,3AMW0RGHOERIX9VJK4FYQI37R6RNPG,bear,4636.784999980591,familiar,close,grizzlybear.jpg,polarbear.jpg,survey-text,12,67958,adult,NA,NA,4,bear
pilot2,adult_15,15,3AMW0RGHOERIX9VJK4FYQI37R6RNPG,dog,3003.3300000359304,familiar,close,germanshepherd.jpg,pug.jpg,survey-text,13,71469,adult,NA,NA,3,dog
pilot2,adult_15,15,3AMW0RGHOERIX9VJK4FYQI37R6RNPG,m&ms,3394.5199999725446,familiar,close,mnms.jpg,gummybears.jpg,survey-text,14,75369,adult,NA,NA,4,m&ms
pilot2,adult_15,15,3AMW0RGHOERIX9VJK4FYQI37R6RNPG,table,2390.8350000274368,familiar,close,diningtable.jpg,picnictable.jpg,survey-text,15,78270,adult,NA,NA,5,table
pilot2,adult_15,15,3AMW0RGHOERIX9VJK4FYQI37R6RNPG,bird,2103.6650000023656,familiar,close,sparrow.jpg,eagle.jpg,survey-text,16,80880,adult,NA,NA,4,bird
pilot2,adult_15,15,3AMW0RGHOERIX9VJK4FYQI37R6RNPG,blue car,3941.040000005159,familiar,close,sedan.jpg,sportscar.jpg,survey-text,17,85331,adult,NA,NA,8,bluecar
pilot2,adult_15,15,3AMW0RGHOERIX9VJK4FYQI37R6RNPG,gold fish,4894.159999967087,familiar,close,goldfish.jpg,swordfish.jpg,survey-text,18,90731,adult,NA,NA,9,goldfish
pilot2,adult_15,15,3AMW0RGHOERIX9VJK4FYQI37R6RNPG,blue collar,4607.885000004899,familiar,close,poloshirt.jpg,hawaiishirt.jpg,survey-text,19,95845,adult,NA,NA,11,bluecollar
pilot2,adult_15,15,3AMW0RGHOERIX9VJK4FYQI37R6RNPG,left throw,5836.460000020452,tangram,far,A2.jpg,C1.jpg,survey-text,21,103677,adult,NA,NA,10,leavethrow
pilot2,adult_15,15,3AMW0RGHOERIX9VJK4FYQI37R6RNPG,left kick,5369.204999995418,tangram,far,tangram-48.jpg,D1.jpg,survey-text,22,109553,adult,NA,NA,9,leavekick
pilot2,adult_15,15,3AMW0RGHOERIX9VJK4FYQI37R6RNPG,right kick,4110.949999943841,tangram,far,tangram-164.jpg,tangram-64.jpg,survey-text,23,114171,adult,NA,NA,10,rightkick
pilot2,adult_15,15,3AMW0RGHOERIX9VJK4FYQI37R6RNPG,open wide,4298.595000000205,tangram,far,tangram-90.jpg,tangram-120.jpg,survey-text,24,118975,adult,NA,NA,9,openwide
pilot2,adult_15,15,3AMW0RGHOERIX9VJK4FYQI37R6RNPG,left down,3754.7499999636784,tangram,far,B1.jpg,tangram-4.jpg,survey-text,25,123238,adult,NA,NA,9,leavedown
pilot2,adult_15,15,3AMW0RGHOERIX9VJK4FYQI37R6RNPG,upright,3537.544999970123,tangram,far,H1.jpg,tangram-8.jpg,survey-text,26,127282,adult,NA,NA,7,upright
pilot2,adult_15,15,3AMW0RGHOERIX9VJK4FYQI37R6RNPG,right rush,5052.390000026207,tangram,far,tangram-55.jpg,tangram-143.jpg,survey-text,27,132842,adult,NA,NA,10,rightrush
pilot2,adult_15,15,3AMW0RGHOERIX9VJK4FYQI37R6RNPG,open wide,4644.41499998793,tangram,far,tangram-67.jpg,G1.jpg,survey-text,28,137993,adult,NA,NA,9,openwide
pilot2,adult_15,15,3AMW0RGHOERIX9VJK4FYQI37R6RNPG,blue shirt,7150.1200000057,familiar,isolated,poloshirt.jpg,hawaiishirt.jpg,survey-text,30,146973,adult,NA,NA,10,blueshirt
pilot2,adult_15,15,3AMW0RGHOERIX9VJK4FYQI37R6RNPG,blue caar,2711.5600000252016,familiar,isolated,sedan.jpg,sportscar.jpg,survey-text,31,150193,adult,NA,NA,9,bluecaar
pilot2,adult_15,15,3AMW0RGHOERIX9VJK4FYQI37R6RNPG,table,2182.874999998603,familiar,isolated,diningtable.jpg,picnictable.jpg,survey-text,32,152881,adult,NA,NA,5,table
pilot2,adult_15,15,3AMW0RGHOERIX9VJK4FYQI37R6RNPG,mmms,3089.8750000051223,familiar,isolated,mnms.jpg,gummybears.jpg,survey-text,33,156478,adult,NA,NA,4,mmms
pilot2,adult_15,15,3AMW0RGHOERIX9VJK4FYQI37R6RNPG,gold fish,2654.399999999441,familiar,isolated,goldfish.jpg,swordfish.jpg,survey-text,34,159640,adult,NA,NA,9,goldfish
pilot2,adult_15,15,3AMW0RGHOERIX9VJK4FYQI37R6RNPG,bear,1733.5849999799393,familiar,isolated,grizzlybear.jpg,polarbear.jpg,survey-text,35,161880,adult,NA,NA,4,bear
pilot2,adult_15,15,3AMW0RGHOERIX9VJK4FYQI37R6RNPG,dog,1769.2800000077114,familiar,isolated,germanshepherd.jpg,pug.jpg,survey-text,36,164157,adult,NA,NA,3,dog
pilot2,adult_15,15,3AMW0RGHOERIX9VJK4FYQI37R6RNPG,bird,1991.6300000040792,familiar,isolated,sparrow.jpg,eagle.jpg,survey-text,37,166655,adult,NA,NA,4,bird
pilot2,adult_15,15,3AMW0RGHOERIX9VJK4FYQI37R6RNPG,mms,2356.67500004638,familiar,far,mnms.jpg,pretzels.jpg,survey-text,39,170680,adult,NA,NA,3,mm
pilot2,adult_15,15,3AMW0RGHOERIX9VJK4FYQI37R6RNPG,bear,1754.9850000068543,familiar,far,grizzlybear.jpg,lion.jpg,survey-text,40,172941,adult,NA,NA,4,bear
pilot2,adult_15,15,3AMW0RGHOERIX9VJK4FYQI37R6RNPG,table,1785.8450000057928,familiar,far,diningtable.jpg,wardrobe.jpg,survey-text,41,175234,adult,NA,NA,5,table
pilot2,adult_15,15,3AMW0RGHOERIX9VJK4FYQI37R6RNPG,blue,2180.660000012722,familiar,far,poloshirt.jpg,dress.jpg,survey-text,42,177922,adult,NA,NA,4,blue
pilot2,adult_15,15,3AMW0RGHOERIX9VJK4FYQI37R6RNPG,bird,1812.080000003334,familiar,far,sparrow.jpg,squirrel.jpg,survey-text,43,180239,adult,NA,NA,4,bird
pilot2,adult_15,15,3AMW0RGHOERIX9VJK4FYQI37R6RNPG,fish,2236.7249999661,familiar,far,goldfish.jpg,iguana.jpg,survey-text,44,182983,adult,NA,NA,4,fish
pilot2,adult_15,15,3AMW0RGHOERIX9VJK4FYQI37R6RNPG,car,1934.850000019651,familiar,far,sedan.jpg,firetruck.jpg,survey-text,45,185425,adult,NA,NA,3,car
pilot2,adult_15,15,3AMW0RGHOERIX9VJK4FYQI37R6RNPG,dog,1832.315000006929,familiar,far,germanshepherd.jpg,cow.jpg,survey-text,46,187766,adult,NA,NA,3,dog
pilot2,adult_15,15,3AMW0RGHOERIX9VJK4FYQI37R6RNPG,up,3553.28999995254,tangram,isolated,tangram-90.jpg,tangram-81.jpg,survey-text,48,193750,adult,NA,NA,2,up
pilot2,adult_15,15,3AMW0RGHOERIX9VJK4FYQI37R6RNPG,right,1849.915000027977,tangram,isolated,tangram-55.jpg,N1.jpg,survey-text,49,196106,adult,NA,NA,5,right
pilot2,adult_15,15,3AMW0RGHOERIX9VJK4FYQI37R6RNPG,left,1651.914999994915,tangram,isolated,tangram-48.jpg,tangram-187.jpg,survey-text,50,198264,adult,NA,NA,4,leave
pilot2,adult_15,15,3AMW0RGHOERIX9VJK4FYQI37R6RNPG,left,3040.674999996554,tangram,isolated,A2.jpg,tangram-99.jpg,survey-text,51,201814,adult,NA,NA,4,leave
pilot2,adult_15,15,3AMW0RGHOERIX9VJK4FYQI37R6RNPG,right,2103.6999999778345,tangram,isolated,tangram-164.jpg,tangram-183.jpg,survey-text,52,204424,adult,NA,NA,5,right
pilot2,adult_15,15,3AMW0RGHOERIX9VJK4FYQI37R6RNPG,right,1697.5400000228549,tangram,isolated,tangram-67.jpg,tangram-32.jpg,survey-text,53,206628,adult,NA,NA,5,right
pilot2,adult_15,15,3AMW0RGHOERIX9VJK4FYQI37R6RNPG,left,1985.854999977164,tangram,isolated,B1.jpg,P1.jpg,survey-text,54,209120,adult,NA,NA,4,leave
pilot2,adult_15,15,3AMW0RGHOERIX9VJK4FYQI37R6RNPG,upright,2418.26000000583,tangram,isolated,H1.jpg,I1.jpg,survey-text,55,212045,adult,NA,NA,7,upright
pilot2,adult_17,17,3OLF68YTNAQZMDC0XXEOSI53QU7FAP,colorful candy,13057.000000000016,familiar,isolated,mnms.jpg,gummybears.jpg,survey-text,3,68541,adult,NA,NA,14,colorfulcandy
pilot2,adult_17,17,3OLF68YTNAQZMDC0XXEOSI53QU7FAP,new car,8684,familiar,isolated,sedan.jpg,sportscar.jpg,survey-text,4,77736,adult,NA,NA,7,newcar
pilot2,adult_17,17,3OLF68YTNAQZMDC0XXEOSI53QU7FAP,dog stretching,11422.000000000016,familiar,isolated,germanshepherd.jpg,pug.jpg,survey-text,5,89666,adult,NA,NA,14,dogstretch
pilot2,adult_17,17,3OLF68YTNAQZMDC0XXEOSI53QU7FAP,polo shirt,8887,familiar,isolated,poloshirt.jpg,hawaiishirt.jpg,survey-text,6,99060,adult,NA,NA,10,poloshirt
pilot2,adult_17,17,3OLF68YTNAQZMDC0XXEOSI53QU7FAP,goldfish,7140,familiar,isolated,goldfish.jpg,swordfish.jpg,survey-text,7,106712,adult,NA,NA,8,goldfish
pilot2,adult_17,17,3OLF68YTNAQZMDC0XXEOSI53QU7FAP,long table,7995,familiar,isolated,diningtable.jpg,picnictable.jpg,survey-text,8,115218,adult,NA,NA,10,longtable
pilot2,adult_17,17,3OLF68YTNAQZMDC0XXEOSI53QU7FAP,grizzly bear,7567.000000000015,familiar,isolated,grizzlybear.jpg,polarbear.jpg,survey-text,9,123296,adult,NA,NA,12,grizzlybear
pilot2,adult_17,17,3OLF68YTNAQZMDC0XXEOSI53QU7FAP,small bird,9424,familiar,isolated,sparrow.jpg,eagle.jpg,survey-text,10,133227,adult,NA,NA,10,smallbird
pilot2,adult_17,17,3OLF68YTNAQZMDC0XXEOSI53QU7FAP,orange,51284,familiar,far,goldfish.jpg,iguana.jpg,survey-text,12,203153,adult,NA,NA,6,orange
pilot2,adult_17,17,3OLF68YTNAQZMDC0XXEOSI53QU7FAP,colorful,13816,familiar,far,mnms.jpg,pretzels.jpg,survey-text,13,217481,adult,NA,NA,8,colorful
pilot2,adult_17,17,3OLF68YTNAQZMDC0XXEOSI53QU7FAP,pet,11293.00000000003,familiar,far,germanshepherd.jpg,cow.jpg,survey-text,14,229283,adult,NA,NA,3,pet
pilot2,adult_17,17,3OLF68YTNAQZMDC0XXEOSI53QU7FAP,fish eater,23293,familiar,far,grizzlybear.jpg,lion.jpg,survey-text,15,253087,adult,NA,NA,10,fisheater
pilot2,adult_17,17,3OLF68YTNAQZMDC0XXEOSI53QU7FAP,mens apparel,27639,familiar,far,poloshirt.jpg,dress.jpg,survey-text,16,281238,adult,NA,NA,13,mansapparel
pilot2,adult_17,17,3OLF68YTNAQZMDC0XXEOSI53QU7FAP,avian,16057,familiar,far,sparrow.jpg,squirrel.jpg,survey-text,17,297806,adult,NA,NA,5,avian
pilot2,adult_17,17,3OLF68YTNAQZMDC0XXEOSI53QU7FAP,extended,33480,familiar,far,diningtable.jpg,wardrobe.jpg,survey-text,18,331796,adult,NA,NA,8,extend
pilot2,adult_17,17,3OLF68YTNAQZMDC0XXEOSI53QU7FAP,home vehicle,13361,familiar,far,sedan.jpg,firetruck.jpg,survey-text,19,345667,adult,NA,NA,12,homevehicle
pilot2,adult_17,17,3OLF68YTNAQZMDC0XXEOSI53QU7FAP,human like,15561,tangram,far,B1.jpg,tangram-4.jpg,survey-text,21,375421,adult,NA,NA,10,humanlike
pilot2,adult_17,17,3OLF68YTNAQZMDC0XXEOSI53QU7FAP,figure walking,12662,tangram,far,A2.jpg,C1.jpg,survey-text,22,388595,adult,NA,NA,14,figurewalk
pilot2,adult_17,17,3OLF68YTNAQZMDC0XXEOSI53QU7FAP,mid step,12863,tangram,far,tangram-48.jpg,D1.jpg,survey-text,23,401970,adult,NA,NA,8,midstep
pilot2,adult_17,17,3OLF68YTNAQZMDC0XXEOSI53QU7FAP,mid stride,18730,tangram,far,tangram-90.jpg,tangram-120.jpg,survey-text,24,421211,adult,NA,NA,10,midstride
pilot2,adult_17,17,3OLF68YTNAQZMDC0XXEOSI53QU7FAP,figure running,10679,tangram,far,tangram-67.jpg,G1.jpg,survey-text,25,432400,adult,NA,NA,14,figurerun
pilot2,adult_17,17,3OLF68YTNAQZMDC0XXEOSI53QU7FAP,looking up,17694,tangram,far,H1.jpg,tangram-8.jpg,survey-text,26,450606,adult,NA,NA,10,lookup
pilot2,adult_17,17,3OLF68YTNAQZMDC0XXEOSI53QU7FAP,figure running,12479.000000000058,tangram,far,tangram-55.jpg,tangram-143.jpg,survey-text,27,463595,adult,NA,NA,14,figurerun
pilot2,adult_17,17,3OLF68YTNAQZMDC0XXEOSI53QU7FAP,crossed legs,11573.000000000058,tangram,far,tangram-164.jpg,tangram-64.jpg,survey-text,28,475679,adult,NA,NA,12,crossleg
pilot2,adult_17,17,3OLF68YTNAQZMDC0XXEOSI53QU7FAP,figure walking,13299,tangram,isolated,A2.jpg,tangram-99.jpg,survey-text,30,495379,adult,NA,NA,14,figurewalk
pilot2,adult_17,17,3OLF68YTNAQZMDC0XXEOSI53QU7FAP,figure stepping,20241.99999999994,tangram,isolated,tangram-90.jpg,tangram-81.jpg,survey-text,31,516132,adult,NA,NA,15,figurestep
pilot2,adult_17,17,3OLF68YTNAQZMDC0XXEOSI53QU7FAP,figure walking,78691.00000000006,tangram,isolated,tangram-48.jpg,tangram-187.jpg,survey-text,32,595332,adult,NA,NA,14,figurewalk
pilot2,adult_17,17,3OLF68YTNAQZMDC0XXEOSI53QU7FAP,figure running,7966.000000000116,tangram,isolated,tangram-55.jpg,N1.jpg,survey-text,33,603807,adult,NA,NA,14,figurerun
pilot2,adult_17,17,3OLF68YTNAQZMDC0XXEOSI53QU7FAP,figure jumping,9503,tangram,isolated,tangram-67.jpg,tangram-32.jpg,survey-text,34,613821,adult,NA,NA,14,figurejump
pilot2,adult_17,17,3OLF68YTNAQZMDC0XXEOSI53QU7FAP,figure sitting,26809.999999999884,tangram,isolated,tangram-164.jpg,tangram-183.jpg,survey-text,35,641141,adult,NA,NA,14,figuresit
pilot2,adult_17,17,3OLF68YTNAQZMDC0XXEOSI53QU7FAP,figure praying,10413.000000000116,tangram,isolated,H1.jpg,I1.jpg,survey-text,36,652062,adult,NA,NA,14,figurepray
pilot2,adult_17,17,3OLF68YTNAQZMDC0XXEOSI53QU7FAP,figure walking,9338,tangram,isolated,B1.jpg,P1.jpg,survey-text,37,661906,adult,NA,NA,14,figurewalk
pilot2,adult_17,17,3OLF68YTNAQZMDC0XXEOSI53QU7FAP,wide step,12839,tangram,close,A2.jpg,tangram-99.jpg,survey-text,39,678034,adult,NA,NA,9,widestep
pilot2,adult_17,17,3OLF68YTNAQZMDC0XXEOSI53QU7FAP,upright,11143,tangram,close,tangram-164.jpg,tangram-183.jpg,survey-text,40,689687,adult,NA,NA,7,upright
pilot2,adult_17,17,3OLF68YTNAQZMDC0XXEOSI53QU7FAP,looking down,12362.000000000116,tangram,close,B1.jpg,P1.jpg,survey-text,41,702560,adult,NA,NA,12,lookdown
pilot2,adult_17,17,3OLF68YTNAQZMDC0XXEOSI53QU7FAP,wide stride,10332,tangram,close,tangram-67.jpg,tangram-32.jpg,survey-text,42,713405,adult,NA,NA,11,widestride
pilot2,adult_17,17,3OLF68YTNAQZMDC0XXEOSI53QU7FAP,playful,8930,tangram,close,tangram-90.jpg,tangram-81.jpg,survey-text,43,722846,adult,NA,NA,7,playful
pilot2,adult_17,17,3OLF68YTNAQZMDC0XXEOSI53QU7FAP,leaning forward,16297,tangram,close,tangram-48.jpg,tangram-187.jpg,survey-text,44,739654,adult,NA,NA,15,leanforward
pilot2,adult_17,17,3OLF68YTNAQZMDC0XXEOSI53QU7FAP,no legs,25231,tangram,close,H1.jpg,I1.jpg,survey-text,45,765400,adult,NA,NA,7,noleg
pilot2,adult_17,17,3OLF68YTNAQZMDC0XXEOSI53QU7FAP,more narrow,18273,tangram,close,tangram-55.jpg,N1.jpg,survey-text,46,784182,adult,NA,NA,11,muchnarrow
pilot2,adult_17,17,3OLF68YTNAQZMDC0XXEOSI53QU7FAP,facing left,13822,familiar,close,germanshepherd.jpg,pug.jpg,survey-text,48,802514,adult,NA,NA,11,faceleave
pilot2,adult_17,17,3OLF68YTNAQZMDC0XXEOSI53QU7FAP,longest table,11107,familiar,close,diningtable.jpg,picnictable.jpg,survey-text,49,814134,adult,NA,NA,13,longtable
pilot2,adult_17,17,3OLF68YTNAQZMDC0XXEOSI53QU7FAP,darkest fur,12084,familiar,close,grizzlybear.jpg,polarbear.jpg,survey-text,50,826729,adult,NA,NA,11,darkfur
pilot2,adult_17,17,3OLF68YTNAQZMDC0XXEOSI53QU7FAP,smaller bird,23076,familiar,close,sparrow.jpg,eagle.jpg,survey-text,51,850316,adult,NA,NA,12,smallbird
pilot2,adult_17,17,3OLF68YTNAQZMDC0XXEOSI53QU7FAP,small fish,11141,familiar,close,goldfish.jpg,swordfish.jpg,survey-text,52,861967,adult,NA,NA,10,smallfish
pilot2,adult_17,17,3OLF68YTNAQZMDC0XXEOSI53QU7FAP,economy car,26421.999999999884,familiar,close,sedan.jpg,sportscar.jpg,survey-text,53,888902,adult,NA,NA,11,economycar
pilot2,adult_17,17,3OLF68YTNAQZMDC0XXEOSI53QU7FAP,circular candy,11343,familiar,close,mnms.jpg,gummybears.jpg,survey-text,54,900757,adult,NA,NA,14,circularcandy
pilot2,adult_17,17,3OLF68YTNAQZMDC0XXEOSI53QU7FAP,plain shirt,12366,familiar,close,poloshirt.jpg,hawaiishirt.jpg,survey-text,55,913633,adult,NA,NA,11,plainshirt
pilot2,adult_19,19,3HQUKB7LNG3YAWBKYTCGCP4KJ3KHH8,running,13971,tangram,close,tangram-55.jpg,N1.jpg,survey-text,3,65759,adult,NA,NA,7,run
pilot2,adult_19,19,3HQUKB7LNG3YAWBKYTCGCP4KJ3KHH8,seated,9898,tangram,close,tangram-164.jpg,tangram-183.jpg,survey-text,4,76193,adult,NA,NA,6,seat
pilot2,adult_19,19,3HQUKB7LNG3YAWBKYTCGCP4KJ3KHH8,candle,13747,tangram,close,H1.jpg,I1.jpg,survey-text,5,90482,adult,NA,NA,6,candle
pilot2,adult_19,19,3HQUKB7LNG3YAWBKYTCGCP4KJ3KHH8,boxy torso,20649,tangram,close,tangram-48.jpg,tangram-187.jpg,survey-text,6,111662,adult,NA,NA,10,boxytorso
pilot2,adult_19,19,3HQUKB7LNG3YAWBKYTCGCP4KJ3KHH8,walking left,20729,tangram,close,A2.jpg,tangram-99.jpg,survey-text,7,132921,adult,NA,NA,12,walkleave
pilot2,adult_19,19,3HQUKB7LNG3YAWBKYTCGCP4KJ3KHH8,triangle torso,12312,tangram,close,tangram-90.jpg,tangram-81.jpg,survey-text,8,145763,adult,NA,NA,14,triangletorso
pilot2,adult_19,19,3HQUKB7LNG3YAWBKYTCGCP4KJ3KHH8,running figure,19094,tangram,close,tangram-67.jpg,tangram-32.jpg,survey-text,9,165373,adult,NA,NA,14,runfigure
pilot2,adult_19,19,3HQUKB7LNG3YAWBKYTCGCP4KJ3KHH8,tilting left,17310,tangram,close,B1.jpg,P1.jpg,survey-text,10,183226,adult,NA,NA,12,tiltleave
pilot2,adult_19,19,3HQUKB7LNG3YAWBKYTCGCP4KJ3KHH8,kicking figure,9679,tangram,far,tangram-48.jpg,D1.jpg,survey-text,12,200786,adult,NA,NA,14,kickfigure
pilot2,adult_19,19,3HQUKB7LNG3YAWBKYTCGCP4KJ3KHH8,walking left,11169,tangram,far,A2.jpg,C1.jpg,survey-text,13,212485,adult,NA,NA,12,walkleave
pilot2,adult_19,19,3HQUKB7LNG3YAWBKYTCGCP4KJ3KHH8,running figure,9733,tangram,far,tangram-55.jpg,tangram-143.jpg,survey-text,14,222757,adult,NA,NA,14,runfigure
pilot2,adult_19,19,3HQUKB7LNG3YAWBKYTCGCP4KJ3KHH8,candle,9157,tangram,far,H1.jpg,tangram-8.jpg,survey-text,15,232437,adult,NA,NA,6,candle
pilot2,adult_19,19,3HQUKB7LNG3YAWBKYTCGCP4KJ3KHH8,running figure,10878,tangram,far,tangram-67.jpg,G1.jpg,survey-text,16,243842,adult,NA,NA,14,runfigure
pilot2,adult_19,19,3HQUKB7LNG3YAWBKYTCGCP4KJ3KHH8,triangular torso,12792,tangram,far,tangram-90.jpg,tangram-120.jpg,survey-text,17,257187,adult,NA,NA,16,triangulartorso
pilot2,adult_19,19,3HQUKB7LNG3YAWBKYTCGCP4KJ3KHH8,seated figure,8201,tangram,far,tangram-164.jpg,tangram-64.jpg,survey-text,18,265912,adult,NA,NA,13,seatfigure
pilot2,adult_19,19,3HQUKB7LNG3YAWBKYTCGCP4KJ3KHH8,walking left,8549,tangram,far,B1.jpg,tangram-4.jpg,survey-text,19,275010,adult,NA,NA,12,walkleave
pilot2,adult_19,19,3HQUKB7LNG3YAWBKYTCGCP4KJ3KHH8,boxy torso,13099,tangram,isolated,tangram-48.jpg,tangram-187.jpg,survey-text,21,294345,adult,NA,NA,10,boxytorso
pilot2,adult_19,19,3HQUKB7LNG3YAWBKYTCGCP4KJ3KHH8,candle,20464,tangram,isolated,H1.jpg,I1.jpg,survey-text,22,315347,adult,NA,NA,6,candle
pilot2,adult_19,19,3HQUKB7LNG3YAWBKYTCGCP4KJ3KHH8,running figure,9136,tangram,isolated,tangram-67.jpg,tangram-32.jpg,survey-text,23,325016,adult,NA,NA,14,runfigure
pilot2,adult_19,19,3HQUKB7LNG3YAWBKYTCGCP4KJ3KHH8,walking left,10966,tangram,isolated,A2.jpg,tangram-99.jpg,survey-text,24,336513,adult,NA,NA,12,walkleave
pilot2,adult_19,19,3HQUKB7LNG3YAWBKYTCGCP4KJ3KHH8,seated figure,15022,tangram,isolated,tangram-164.jpg,tangram-183.jpg,survey-text,25,352057,adult,NA,NA,13,seatfigure
pilot2,adult_19,19,3HQUKB7LNG3YAWBKYTCGCP4KJ3KHH8,triangular torso,11895,tangram,isolated,tangram-90.jpg,tangram-81.jpg,survey-text,26,364490,adult,NA,NA,16,triangulartorso
pilot2,adult_19,19,3HQUKB7LNG3YAWBKYTCGCP4KJ3KHH8,running right,10364,tangram,isolated,tangram-55.jpg,N1.jpg,survey-text,27,375388,adult,NA,NA,13,runright
pilot2,adult_19,19,3HQUKB7LNG3YAWBKYTCGCP4KJ3KHH8,walking left,7896,tangram,isolated,B1.jpg,P1.jpg,survey-text,28,383817,adult,NA,NA,12,walkleave
pilot2,adult_19,19,3HQUKB7LNG3YAWBKYTCGCP4KJ3KHH8,table,10060,familiar,close,diningtable.jpg,picnictable.jpg,survey-text,30,401519,adult,NA,NA,5,table
pilot2,adult_19,19,3HQUKB7LNG3YAWBKYTCGCP4KJ3KHH8,small bird,9105,familiar,close,sparrow.jpg,eagle.jpg,survey-text,31,411156,adult,NA,NA,10,smallbird
pilot2,adult_19,19,3HQUKB7LNG3YAWBKYTCGCP4KJ3KHH8,m m,13352,familiar,close,mnms.jpg,gummybears.jpg,survey-text,32,425047,adult,NA,NA,3,bebe
pilot2,adult_19,19,3HQUKB7LNG3YAWBKYTCGCP4KJ3KHH8,blue,10741,familiar,close,sedan.jpg,sportscar.jpg,survey-text,33,436318,adult,NA,NA,4,blue
pilot2,adult_19,19,3HQUKB7LNG3YAWBKYTCGCP4KJ3KHH8,german shepherd,47094,familiar,close,germanshepherd.jpg,pug.jpg,survey-text,34,483958,adult,NA,NA,15,germanshepherd
pilot2,adult_19,19,3HQUKB7LNG3YAWBKYTCGCP4KJ3KHH8,goldfish,5701,familiar,close,goldfish.jpg,swordfish.jpg,survey-text,35,490177,adult,NA,NA,8,goldfish
pilot2,adult_19,19,3HQUKB7LNG3YAWBKYTCGCP4KJ3KHH8,grizzly,5286,familiar,close,grizzlybear.jpg,polarbear.jpg,survey-text,36,496001,adult,NA,NA,7,grizzly
pilot2,adult_19,19,3HQUKB7LNG3YAWBKYTCGCP4KJ3KHH8,plain blue,6797,familiar,close,poloshirt.jpg,hawaiishirt.jpg,survey-text,37,503327,adult,NA,NA,10,plainblue
pilot2,adult_19,19,3HQUKB7LNG3YAWBKYTCGCP4KJ3KHH8,grizzly,6064,familiar,isolated,grizzlybear.jpg,polarbear.jpg,survey-text,39,719415,adult,NA,NA,7,grizzly
pilot2,adult_19,19,3HQUKB7LNG3YAWBKYTCGCP4KJ3KHH8,german shepherd,10628,familiar,isolated,germanshepherd.jpg,pug.jpg,survey-text,40,730569,adult,NA,NA,15,germanshepherd
pilot2,adult_19,19,3HQUKB7LNG3YAWBKYTCGCP4KJ3KHH8,m m,5520,familiar,isolated,mnms.jpg,gummybears.jpg,survey-text,41,736631,adult,NA,NA,3,bebe
pilot2,adult_19,19,3HQUKB7LNG3YAWBKYTCGCP4KJ3KHH8,small bird,8528,familiar,isolated,sparrow.jpg,eagle.jpg,survey-text,42,745696,adult,NA,NA,10,smallbird
pilot2,adult_19,19,3HQUKB7LNG3YAWBKYTCGCP4KJ3KHH8,table,11868,familiar,isolated,diningtable.jpg,picnictable.jpg,survey-text,43,758100,adult,NA,NA,5,table
pilot2,adult_19,19,3HQUKB7LNG3YAWBKYTCGCP4KJ3KHH8,blue shirt,5882,familiar,isolated,poloshirt.jpg,hawaiishirt.jpg,survey-text,44,764505,adult,NA,NA,10,blueshirt
pilot2,adult_19,19,3HQUKB7LNG3YAWBKYTCGCP4KJ3KHH8,blue car,5287,familiar,isolated,sedan.jpg,sportscar.jpg,survey-text,45,770325,adult,NA,NA,8,bluecar
pilot2,adult_19,19,3HQUKB7LNG3YAWBKYTCGCP4KJ3KHH8,goldfish,7831,familiar,isolated,goldfish.jpg,swordfish.jpg,survey-text,46,778678,adult,NA,NA,8,goldfish
pilot2,adult_19,19,3HQUKB7LNG3YAWBKYTCGCP4KJ3KHH8,grizzly,9130,familiar,far,grizzlybear.jpg,lion.jpg,survey-text,48,797593,adult,NA,NA,7,grizzly
pilot2,adult_19,19,3HQUKB7LNG3YAWBKYTCGCP4KJ3KHH8,goldfish,7091,familiar,far,goldfish.jpg,iguana.jpg,survey-text,49,805221,adult,NA,NA,8,goldfish
pilot2,adult_19,19,3HQUKB7LNG3YAWBKYTCGCP4KJ3KHH8,table,7501,familiar,far,diningtable.jpg,wardrobe.jpg,survey-text,50,813246,adult,NA,NA,5,table
pilot2,adult_19,19,3HQUKB7LNG3YAWBKYTCGCP4KJ3KHH8,car,9587,familiar,far,sedan.jpg,firetruck.jpg,survey-text,51,823372,adult,NA,NA,3,car
pilot2,adult_19,19,3HQUKB7LNG3YAWBKYTCGCP4KJ3KHH8,bird,5083,familiar,far,sparrow.jpg,squirrel.jpg,survey-text,52,829003,adult,NA,NA,4,bird
pilot2,adult_19,19,3HQUKB7LNG3YAWBKYTCGCP4KJ3KHH8,dog,4494,familiar,far,germanshepherd.jpg,cow.jpg,survey-text,53,834024,adult,NA,NA,3,dog
