"rt","utterance","target","foil","responses","competitor_type","target_type","test_part","trialtype","trial_type","trial_index","time_elapsed","internal_node_id","id","age","button_pressed"
"6719.5","fish","goldfish.jpg","swordfish.jpg","{""Q0"":""fish""}","close","familiar","trial","paired","survey-text","19","92638","0.0-19.0-0.0","1","5",""
"5152.5","shirt","poloshirt.jpg","hawaiishirt.jpg","{""Q0"":""shirt""}","close","familiar","trial","paired","survey-text","20","98298","0.0-19.0-0.1","1","5",""
"5200.099999964237","bird","sparrow.jpg","eagle.jpg","{""Q0"":""bird""}","close","familiar","trial","paired","survey-text","21","104004","0.0-19.0-0.2","1","5",""
"8363.399999976158","jellybeans","jellybeans.jpg","gummybears.jpg","{""Q0"":""jellybeans""}","close","familiar","trial","paired","survey-text","22","112874","0.0-19.0-0.3","1","5",""
"5792.400000035763","table","diningtable.jpg","picnictable.jpg","{""Q0"":""table""}","close","familiar","trial","paired","survey-text","23","119171","0.0-19.0-0.4","1","5",""
"5484.900000035763","dog","germanshepherd.jpg","pug.jpg","{""Q0"":""dog""}","close","familiar","trial","paired","survey-text","24","125162","0.0-19.0-0.5","1","5",""
"4577.600000023842","car","sedan.jpg","sportscar.jpg","{""Q0"":""car""}","close","familiar","trial","paired","survey-text","25","130247","0.0-19.0-0.6","1","5",""
"8932.199999988079","bear","grizzlybear.jpg","polarbear.jpg","{""Q0"":""bear""}","close","familiar","trial","paired","survey-text","26","139688","0.0-19.0-0.7","1","5",""
"96280.89999997616","black walking in the wall","tangram-164.jpg","tangram-183.jpg","{""Q0"":""black walking in the wall""}","close","tangram","trial","paired","survey-text","28","249267","0.0-21.0-0.0","1","5",""
"10004.100000023842","walking","tangram-67.jpg","tangram-32.jpg","{""Q0"":""walking""}","close","tangram","trial","paired","survey-text","29","259771","0.0-21.0-0.1","1","5",""
"26560.69999998808","doing a footprint","tangram-48.jpg","tangram-187.jpg","{""Q0"":""doing a footprint""}","close","tangram","trial","paired","survey-text","30","286834","0.0-21.0-0.2","1","5",""
"30407.799999952316","walking on something","tangram-55.jpg","N1.jpg","{""Q0"":""walking on something""}","close","tangram","trial","paired","survey-text","31","317749","0.0-21.0-0.3","1","5",""
"9567","walking","tangram-90.jpg","tangram-81.jpg","{""Q0"":""walking""}","close","tangram","trial","paired","survey-text","32","327822","0.0-21.0-0.4","1","5",""
"46577.30000001192","washing","H1.jpg","I1.jpg","{""Q0"":""washing""}","close","tangram","trial","paired","survey-text","33","374908","0.0-21.0-0.5","1","5",""
"17347.399999976158","going to fall","B1.jpg","P1.jpg","{""Q0"":""going to fall""}","close","tangram","trial","paired","survey-text","34","392764","0.0-21.0-0.6","1","5",""
"55133.60000002384","going to","A2.jpg","tangram-99.jpg","{""Q0"":""going to""}","close","tangram","trial","paired","survey-text","35","448406","0.0-21.0-0.7","1","5",""
"5601.800000011921","fish","goldfish.jpg","iguana.jpg","{""Q0"":""fish""}","far","familiar","trial","paired","survey-text","37","478667","0.0-23.0-0.0","1","5",""
"23695.399999976158","dog","germanshepherd.jpg","cow.jpg","{""Q0"":""dog""}","far","familiar","trial","paired","survey-text","38","502873","0.0-23.0-0.1","1","5",""
"5447.200000047684","bear","grizzlybear.jpg","lion.jpg","{""Q0"":""bear""}","far","familiar","trial","paired","survey-text","39","508825","0.0-23.0-0.2","1","5",""
"5207.699999988079","shirt","poloshirt.jpg","dress.jpg","{""Q0"":""shirt""}","far","familiar","trial","paired","survey-text","40","514540","0.0-23.0-0.3","1","5",""
"11175.699999988079","jellybeans","jellybeans.jpg","pretzels.jpg","{""Q0"":""jellybeans""}","far","familiar","trial","paired","survey-text","41","526224","0.0-23.0-0.4","1","5",""
"5117.199999988079","car","sedan.jpg","firetruck.jpg","{""Q0"":""car""}","far","familiar","trial","paired","survey-text","42","531849","0.0-23.0-0.5","1","5",""
"5541.699999988079","bird","sparrow.jpg","squirrel.jpg","{""Q0"":""bird""}","far","familiar","trial","paired","survey-text","43","537897","0.0-23.0-0.6","1","5",""
"6022.899999976158","table","diningtable.jpg","wardrobe.jpg","{""Q0"":""table""}","far","familiar","trial","paired","survey-text","44","544425","0.0-23.0-0.7","1","5",""
"47282.90000003576","going to a place","A2.jpg","C1.jpg","{""Q0"":""going to a place""}","far","tangram","trial","paired","survey-text","46","605936","0.0-25.0-0.0","1","5",""
"29029","going again","B1.jpg","tangram-4.jpg","{""Q0"":""going again""}","far","tangram","trial","paired","survey-text","47","635472","0.0-25.0-0.1","1","5",""
"17157.100000023842","doing handprint","tangram-90.jpg","tangram-120.jpg","{""Q0"":""doing handprint""}","far","tangram","trial","paired","survey-text","48","653136","0.0-25.0-0.2","1","5",""
"13538.099999964237","walking again","tangram-164.jpg","tangram-64.jpg","{""Q0"":""walking again""}","far","tangram","trial","paired","survey-text","49","667179","0.0-25.0-0.3","1","5",""
"26107.899999976158","going to help us","tangram-55.jpg","tangram-143.jpg","{""Q0"":""going to help us""}","far","tangram","trial","paired","survey-text","50","693795","0.0-25.0-0.4","1","5",""
"33441.80000001192","going to tour","tangram-67.jpg","G1.jpg","{""Q0"":""going to tour""}","far","tangram","trial","paired","survey-text","51","727745","0.0-25.0-0.5","1","5",""
"34816.700000047684","going to walk again","tangram-48.jpg","D1.jpg","{""Q0"":""going to walk again""}","far","tangram","trial","paired","survey-text","52","763069","0.0-25.0-0.6","1","5",""
"17034.30000001192","wash ","H1.jpg","tangram-8.jpg","{""Q0"":""wash ""}","far","tangram","trial","paired","survey-text","53","780612","0.0-25.0-0.7","1","5",""
"9427.200000047684","dog","husky.jpg","dalmatian.jpg","","check","familiar","check","check","html-button-response-1","55","835981","0.0-27.0-0.0","1","5","1"
"11236","polar bear","polarbear.jpg","grizzlybear.jpg","","check","familiar","check","check","html-button-response-1","56","847722","0.0-27.0-0.1","1","5","0"
"10234.399999976158","table","pug.jpg","rabbit.jpg","","check","familiar","check","check","html-button-response-1","57","858461","0.0-27.0-0.2","1","5","1"
"7096.199999988079","bear","firetruck.jpg","ambulance.jpg","","check","familiar","check","check","html-button-response-1","58","866062","0.0-27.0-0.3","1","5","1"
"7434.200000047684","shirt","dressshirt.jpg","campshirt.jpg","","check","familiar","check","check","html-button-response-1","59","874005","0.0-27.0-0.4","1","5","0"
"7292.899999976158","M&Ms","mnms.jpg","gummybears.jpg","","check","familiar","check","check","html-button-response-1","60","881804","0.0-27.0-0.5","1","5","0"
"10462.5","red flower","rose.jpg","daisy.jpg","","check","familiar","check","check","html-button-response-1","61","892770","0.0-27.0-0.6","1","5","0"
"7251","bird","parrot.jpg","pigeon.jpg","","check","familiar","check","check","html-button-response-1","62","900526","0.0-27.0-0.7","1","5","0"
"6834.399999976158","cup","apple.jpg","pear.jpg","","check","familiar","check","check","html-button-response-1","63","907868","0.0-27.0-0.8","1","5","1"
