"rt","utterance","target","foil","responses","competitor_type","target_type","test_part","trialtype","trial_type","trial_index","time_elapsed","internal_node_id","id","age","button_pressed"
"13074","rectangle with no seats","diningtable.jpg","picnictable.jpg","{""Q0"":""rectangle with no seats""}","close","familiar","trial","paired","survey-text","19","1036946","0.0-19.0-0.0","44","7",""
"10568.79999999702","blue shirt without flowers ","poloshirt.jpg","hawaiishirt.jpg","{""Q0"":""blue shirt without flowers ""}","close","familiar","trial","paired","survey-text","20","1048023","0.0-19.0-0.1","44","7",""
"9099.09999999404","blue car","sedan.jpg","sportscar.jpg","{""Q0"":""blue car""}","close","familiar","trial","paired","survey-text","21","1057628","0.0-19.0-0.2","44","7",""
"17441.39999999106","jellybeans not in a bear shape","jellybeans.jpg","gummybears.jpg","{""Q0"":""jellybeans not in a bear shape""}","close","familiar","trial","paired","survey-text","22","1075575","0.0-19.0-0.3","44","7",""
"15913.300000011921","bear that is not hazel ","grizzlybear.jpg","polarbear.jpg","{""Q0"":""bear that is not hazel ""}","close","familiar","trial","paired","survey-text","23","1091995","0.0-19.0-0.4","44","7",""
"13042.199999988079","goldfish","goldfish.jpg","swordfish.jpg","{""Q0"":""goldfish""}","close","familiar","trial","paired","survey-text","24","1105544","0.0-19.0-0.5","44","7",""
"11822.300000011921","bird without a pointy beak","sparrow.jpg","eagle.jpg","{""Q0"":""bird without a pointy beak""}","close","familiar","trial","paired","survey-text","25","1117875","0.0-19.0-0.6","44","7",""
"6580.800000011921","stretching dog ","germanshepherd.jpg","pug.jpg","{""Q0"":""stretching dog ""}","close","familiar","trial","paired","survey-text","26","1124960","0.0-19.0-0.7","44","7",""
"10698.10000000894","somebody who is kicking","tangram-164.jpg","tangram-64.jpg","{""Q0"":""somebody who is kicking""}","far","tangram","trial","paired","survey-text","28","1177862","0.0-21.0-0.0","44","7",""
"8209.70000000298","somebody walking ","A2.jpg","C1.jpg","{""Q0"":""somebody walking ""}","far","tangram","trial","paired","survey-text","29","1186579","0.0-21.0-0.1","44","7",""
"7362.5","somebody kicking","tangram-48.jpg","D1.jpg","{""Q0"":""somebody kicking""}","far","tangram","trial","paired","survey-text","30","1194445","0.0-21.0-0.2","44","7",""
"19401.29999999702","somebody with their arms in front of them ","H1.jpg","tangram-8.jpg","{""Q0"":""somebody with their arms in front of them ""}","far","tangram","trial","paired","survey-text","31","1214352","0.0-21.0-0.3","44","7",""
"7296.4000000059605","somebody running ","tangram-67.jpg","G1.jpg","{""Q0"":""somebody running ""}","far","tangram","trial","paired","survey-text","32","1222156","0.0-21.0-0.4","44","7",""
"6719.399999991059","somebody walking ","B1.jpg","tangram-4.jpg","{""Q0"":""somebody walking ""}","far","tangram","trial","paired","survey-text","33","1229378","0.0-21.0-0.5","44","7",""
"8232.70000000298","somebody running ","tangram-90.jpg","tangram-120.jpg","{""Q0"":""somebody running ""}","far","tangram","trial","paired","survey-text","34","1238118","0.0-21.0-0.6","44","7",""
"14042.59999999404","somebody skipping ","tangram-55.jpg","tangram-143.jpg","{""Q0"":""somebody skipping ""}","far","tangram","trial","paired","survey-text","35","1252666","0.0-21.0-0.7","44","7",""
"6905","brown bear ","grizzlybear.jpg","lion.jpg","{""Q0"":""brown bear ""}","far","familiar","trial","paired","survey-text","37","1274799","0.0-23.0-0.0","44","7",""
"9800","little bird ","sparrow.jpg","squirrel.jpg","{""Q0"":""little bird ""}","far","familiar","trial","paired","survey-text","38","1285103","0.0-23.0-0.1","44","7",""
"9973.59999999404","jellybeans ","jellybeans.jpg","pretzels.jpg","{""Q0"":""jellybeans ""}","far","familiar","trial","paired","survey-text","39","1295582","0.0-23.0-0.2","44","7",""
"7868.70000000298","goldfish","goldfish.jpg","iguana.jpg","{""Q0"":""goldfish""}","far","familiar","trial","paired","survey-text","40","1303956","0.0-23.0-0.3","44","7",""
"9080.10000000894","rectangle on legs ","diningtable.jpg","wardrobe.jpg","{""Q0"":""rectangle on legs ""}","far","familiar","trial","paired","survey-text","41","1313543","0.0-23.0-0.4","44","7",""
"17813","dog stretching ","germanshepherd.jpg","cow.jpg","{""Q0"":""dog stretching ""}","far","familiar","trial","paired","survey-text","42","1331861","0.0-23.0-0.5","44","7",""
"5885.79999999702","blue car ","sedan.jpg","firetruck.jpg","{""Q0"":""blue car ""}","far","familiar","trial","paired","survey-text","43","1338255","0.0-23.0-0.6","44","7",""
"5509.5","blue shirt ","poloshirt.jpg","dress.jpg","{""Q0"":""blue shirt ""}","far","familiar","trial","paired","survey-text","44","1344270","0.0-23.0-0.7","44","7",""
"48865.29999999702","somebody running fast ","tangram-90.jpg","tangram-81.jpg","{""Q0"":""somebody running fast ""}","close","tangram","trial","paired","survey-text","46","1418559","0.0-25.0-0.0","44","7",""
"8885.5","somebody jogging ","tangram-55.jpg","N1.jpg","{""Q0"":""somebody jogging ""}","close","tangram","trial","paired","survey-text","47","1427949","0.0-25.0-0.1","44","7",""
"11054.59999999404","somebody walking and looking down ","B1.jpg","P1.jpg","{""Q0"":""somebody walking and looking down ""}","close","tangram","trial","paired","survey-text","48","1439509","0.0-25.0-0.2","44","7",""
"19636.5","somebody with one foot up and butt not touching the floor","tangram-164.jpg","tangram-183.jpg","{""Q0"":""somebody with one foot up and butt not touching the floor""}","close","tangram","trial","paired","survey-text","49","1459652","0.0-25.0-0.3","44","7",""
"10760.199999988079","somebody kicking high","tangram-48.jpg","tangram-187.jpg","{""Q0"":""somebody kicking high""}","close","tangram","trial","paired","survey-text","50","1470921","0.0-25.0-0.4","44","7",""
"13754.29999999702","somebody with their arms out and no bowl ","H1.jpg","I1.jpg","{""Q0"":""somebody with their arms out and no bowl ""}","close","tangram","trial","paired","survey-text","51","1485180","0.0-25.0-0.5","44","7",""
"14693.79999999702","somebody with long hair walking ","A2.jpg","tangram-99.jpg","{""Q0"":""somebody with long hair walking ""}","close","tangram","trial","paired","survey-text","52","1500381","0.0-25.0-0.6","44","7",""
"9824","somebody running ","tangram-67.jpg","tangram-32.jpg","{""Q0"":""somebody running ""}","close","tangram","trial","paired","survey-text","53","1510710","0.0-25.0-0.7","44","7",""
"13254.79999999702","M&Ms","mnms.jpg","gummybears.jpg","","check","familiar","check","check","html-button-response-1","55","1588169","0.0-27.0-0.0","44","7","0"
"10586.60000000894","bear","firetruck.jpg","ambulance.jpg","","check","familiar","check","check","html-button-response-1","56","1599257","0.0-27.0-0.1","44","7","1"
"12492.40000000596","bird","parrot.jpg","pigeon.jpg","","check","familiar","check","check","html-button-response-1","57","1612253","0.0-27.0-0.2","44","7","1"
"11665.59999999404","shirt","dressshirt.jpg","campshirt.jpg","","check","familiar","check","check","html-button-response-1","58","1624422","0.0-27.0-0.3","44","7","1"
"11873.70000000298","dog","husky.jpg","dalmatian.jpg","","check","familiar","check","check","html-button-response-1","59","1636801","0.0-27.0-0.4","44","7","1"
"11795.70000000298","polar bear","polarbear.jpg","grizzlybear.jpg","","check","familiar","check","check","html-button-response-1","60","1649101","0.0-27.0-0.5","44","7","0"
"9375.89999999106","cup","apple.jpg","pear.jpg","","check","familiar","check","check","html-button-response-1","61","1658978","0.0-27.0-0.6","44","7","1"
"18018.5","table","pug.jpg","rabbit.jpg","","check","familiar","check","check","html-button-response-1","62","1677499","0.0-27.0-0.7","44","7","1"
"10140.79999999702","red flower","rose.jpg","daisy.jpg","","check","familiar","check","check","html-button-response-1","63","1688141","0.0-27.0-0.8","44","7","0"
