_id,iterationName,wID,aID,utterance,rt,target_type,competitor_type,target,foil,trial_type,trial_index,time_elapsed
ObjectId(5ffe0f1be76abe1e679492c3),full_sample,47,352YTHGROW24YKNPJMSXI0VG4VMH4U,man,5752,tangram,isolated,C2.jpg,NA,survey-text,2,21944
ObjectId(5ffe0f22e76abe1e679492c4),full_sample,47,352YTHGROW24YKNPJMSXI0VG4VMH4U,thief,6047,tangram,isolated,P1.jpg,NA,survey-text,3,28508
ObjectId(5ffe0f34e76abe1e679492c6),full_sample,47,352YTHGROW24YKNPJMSXI0VG4VMH4U,dress,17342,tangram,isolated,M1.jpg,NA,survey-text,4,46356
ObjectId(5ffe0f39e76abe1e679492c7),full_sample,47,352YTHGROW24YKNPJMSXI0VG4VMH4U,horse,4826,tangram,isolated,tangram-114.jpg,NA,survey-text,5,51701
ObjectId(5ffe0f42e76abe1e679492c8),full_sample,47,352YTHGROW24YKNPJMSXI0VG4VMH4U,prayer,8954,tangram,isolated,tangram-111.jpg,NA,survey-text,6,61164
ObjectId(5ffe0f4ee76abe1e679492c9),full_sample,47,352YTHGROW24YKNPJMSXI0VG4VMH4U,dog,11355,tangram,isolated,tangram-179.jpg,NA,survey-text,7,73028
ObjectId(5ffe0f5be76abe1e679492cb),full_sample,47,352YTHGROW24YKNPJMSXI0VG4VMH4U,run,11926,tangram,isolated,tangram-150.jpg,NA,survey-text,8,85469
ObjectId(5ffe0f61e76abe1e679492cc),full_sample,47,352YTHGROW24YKNPJMSXI0VG4VMH4U,bow,5842,tangram,isolated,tangram-140.jpg,NA,survey-text,9,91820
ObjectId(5ffe0f62e76abe1e679492cd),full_sample,46,35GCEFQ6I6D5794FPUTL827FML73ZL,runner,8105.94499995932,tangram,isolated,tangram-55.jpg,NA,survey-text,2,82662
ObjectId(5ffe0f6be76abe1e679492ce),full_sample,47,352YTHGROW24YKNPJMSXI0VG4VMH4U,lean,9335,tangram,isolated,tangram-126.jpg,NA,survey-text,10,101668
ObjectId(5ffe0f6ce76abe1e679492cf),full_sample,46,35GCEFQ6I6D5794FPUTL827FML73ZL,hiking,9648.76499993261,tangram,isolated,L1.jpg,NA,survey-text,3,92814
ObjectId(5ffe0f73e76abe1e679492d1),full_sample,46,35GCEFQ6I6D5794FPUTL827FML73ZL,sitting,6189.02499997057,tangram,isolated,G1.jpg,NA,survey-text,4,99506
ObjectId(5ffe0f76e76abe1e679492d2),full_sample,47,352YTHGROW24YKNPJMSXI0VG4VMH4U,sprint,10337,tangram,isolated,tangram-55.jpg,NA,survey-text,11,112523
ObjectId(5ffe0f7be76abe1e679492d4),full_sample,46,35GCEFQ6I6D5794FPUTL827FML73ZL,lounging,7308.334999950603,tangram,isolated,tangram-143.jpg,NA,survey-text,5,107320
ObjectId(5ffe0f7de76abe1e679492d5),full_sample,47,352YTHGROW24YKNPJMSXI0VG4VMH4U,skip,6699,tangram,isolated,tangram-32.jpg,NA,survey-text,12,119731
ObjectId(5ffe0f7ee76abe1e679492d6),full_sample,163,3TR2532VIQJE4DMTQAOXRBV9DEW6J9,running,6810.889999993378,tangram,isolated,R1.jpg,NA,survey-text,2,26574
ObjectId(5ffe0f7fe76abe1e679492d7),full_sample,46,35GCEFQ6I6D5794FPUTL827FML73ZL,digging,4175.354999955744,tangram,isolated,tangram-192.jpg,NA,survey-text,6,111998
ObjectId(5ffe0f83e76abe1e679492d8),full_sample,46,35GCEFQ6I6D5794FPUTL827FML73ZL,falling,3360.3900000452995,tangram,isolated,tangram-183.jpg,NA,survey-text,7,115862
ObjectId(5ffe0f84e76abe1e679492d9),full_sample,47,352YTHGROW24YKNPJMSXI0VG4VMH4U,relaxation,6588,tangram,isolated,tangram-183.jpg,NA,survey-text,13,126828
ObjectId(5ffe0f88e76abe1e679492da),full_sample,163,3TR2532VIQJE4DMTQAOXRBV9DEW6J9,jogging,9868.784999998752,tangram,isolated,A1.jpg,NA,survey-text,3,36951
ObjectId(5ffe0f8ce76abe1e679492db),full_sample,46,35GCEFQ6I6D5794FPUTL827FML73ZL,climbing,8660.425000009127,tangram,isolated,tangram-9.jpg,NA,survey-text,8,125026
ObjectId(5ffe0f90e76abe1e679492dc),full_sample,46,35GCEFQ6I6D5794FPUTL827FML73ZL,rowing,3296.870000078343,tangram,isolated,D1.jpg,NA,survey-text,9,128826
ObjectId(5ffe0f90e76abe1e679492dd),full_sample,163,3TR2532VIQJE4DMTQAOXRBV9DEW6J9,walking,7703.670000017155,tangram,isolated,tangram-44.jpg,NA,survey-text,4,45166
ObjectId(5ffe0f92e76abe1e679492de),full_sample,47,352YTHGROW24YKNPJMSXI0VG4VMH4U,dance,13129,tangram,isolated,tangram-192.jpg,NA,survey-text,14,140468
ObjectId(5ffe0f98e76abe1e679492df),full_sample,47,352YTHGROW24YKNPJMSXI0VG4VMH4U,beg,5313,tangram,isolated,I1.jpg,NA,survey-text,15,146284
ObjectId(5ffe0f98e76abe1e679492e0),full_sample,163,3TR2532VIQJE4DMTQAOXRBV9DEW6J9,sleeping,7531.539999996312,tangram,isolated,Y1.jpg,NA,survey-text,5,53207
ObjectId(5ffe0f99e76abe1e679492e1),full_sample,46,35GCEFQ6I6D5794FPUTL827FML73ZL,walking,8607.350000063889,tangram,isolated,F1.jpg,NA,survey-text,10,137937
ObjectId(5ffe0f9ee76abe1e679492e2),full_sample,163,3TR2532VIQJE4DMTQAOXRBV9DEW6J9,lounging,5482.929999998305,tangram,isolated,D1.jpg,NA,survey-text,6,59198
ObjectId(5ffe0fa0e76abe1e679492e3),full_sample,47,352YTHGROW24YKNPJMSXI0VG4VMH4U,rejection,7844,tangram,isolated,tangram-64.jpg,NA,survey-text,16,154636
ObjectId(5ffe0fa2e76abe1e679492e4),full_sample,46,35GCEFQ6I6D5794FPUTL827FML73ZL,pedestrian,8133.4550000028685,tangram,isolated,tangram-96.jpg,NA,survey-text,11,146574
ObjectId(5ffe0fa3e76abe1e679492e5),full_sample,163,3TR2532VIQJE4DMTQAOXRBV9DEW6J9,dancing,4369.735000014771,tangram,isolated,tangram-53.jpg,NA,survey-text,7,64088
ObjectId(5ffe0fa8e76abe1e679492e6),full_sample,46,35GCEFQ6I6D5794FPUTL827FML73ZL,playing,5511.784999980591,tangram,isolated,O1.jpg,NA,survey-text,12,152590
ObjectId(5ffe0fa9e76abe1e679492e7),full_sample,163,3TR2532VIQJE4DMTQAOXRBV9DEW6J9,kicking,5220.549999998184,tangram,isolated,tangram-187.jpg,NA,survey-text,8,69818
ObjectId(5ffe0faae76abe1e679492e8),full_sample,47,352YTHGROW24YKNPJMSXI0VG4VMH4U,strawberry,9611,catch,NA,catch_trial.jpg,NA,survey-text,17,164755
ObjectId(5ffe0fafe76abe1e679492e9),full_sample,46,35GCEFQ6I6D5794FPUTL827FML73ZL,marching,6182.009999989532,tangram,isolated,tangram-108.jpg,NA,survey-text,13,159275
ObjectId(5ffe0fb3e76abe1e679492ea),full_sample,46,35GCEFQ6I6D5794FPUTL827FML73ZL,dancing,3655.3700000513345,tangram,isolated,tangram-30.jpg,NA,survey-text,14,163435
ObjectId(5ffe0fb6e76abe1e679492eb),full_sample,47,352YTHGROW24YKNPJMSXI0VG4VMH4U,dress,11751,tangram,isolated,tangram-146.jpg,NA,survey-text,18,177020
ObjectId(5ffe0fb8e76abe1e679492ec),full_sample,163,3TR2532VIQJE4DMTQAOXRBV9DEW6J9,reading,14199.599999992643,tangram,isolated,tangram-4.jpg,NA,survey-text,9,84523
ObjectId(5ffe0fbce76abe1e679492ed),full_sample,163,3TR2532VIQJE4DMTQAOXRBV9DEW6J9,standing,4153.01000000909,tangram,isolated,C2.jpg,NA,survey-text,10,89184
ObjectId(5ffe0fbde76abe1e679492ee),full_sample,46,35GCEFQ6I6D5794FPUTL827FML73ZL,crossing,9389.354999992065,tangram,isolated,tangram-178.jpg,NA,survey-text,15,173327
ObjectId(5ffe0fbee76abe1e679492ef),full_sample,47,352YTHGROW24YKNPJMSXI0VG4VMH4U,praying,7080,tangram,isolated,C1.jpg,NA,survey-text,19,184619
ObjectId(5ffe0fc7e76abe1e679492f1),full_sample,47,352YTHGROW24YKNPJMSXI0VG4VMH4U,Santa,8606,tangram,isolated,tangram-9.jpg,NA,survey-text,20,193731
ObjectId(5ffe0fc7e76abe1e679492f2),full_sample,163,3TR2532VIQJE4DMTQAOXRBV9DEW6J9,washing,10478.224999998929,tangram,isolated,tangram-179.jpg,NA,survey-text,11,100169
ObjectId(5ffe0fcee76abe1e679492f4),full_sample,47,352YTHGROW24YKNPJMSXI0VG4VMH4U,monk,6843,tangram,isolated,tangram-87.jpg,NA,survey-text,21,201091
ObjectId(5ffe0fd1e76abe1e679492f6),full_sample,46,35GCEFQ6I6D5794FPUTL827FML73ZL,walking,20105.845000012778,tangram,isolated,tangram-99.jpg,NA,survey-text,16,193936
ObjectId(5ffe0fd2e76abe1e679492f7),full_sample,8,3JMSRU9HQJJR8NF2DHLE6NYGPZREVN,man,8195.169999962673,tangram,isolated,tangram-168.jpg,NA,survey-text,2,42006
ObjectId(5ffe0fd5e76abe1e679492f8),full_sample,163,3TR2532VIQJE4DMTQAOXRBV9DEW6J9,napping,13057.449999992969,tangram,isolated,tangram-87.jpg,NA,survey-text,12,113729
ObjectId(5ffe0fd7e76abe1e679492fa),full_sample,8,3JMSRU9HQJJR8NF2DHLE6NYGPZREVN,standing,4848.235000157729,tangram,isolated,T1.jpg,NA,survey-text,3,47365
ObjectId(5ffe0fd9e76abe1e679492fb),full_sample,47,352YTHGROW24YKNPJMSXI0VG4VMH4U,girl,10078,tangram,isolated,A2.jpg,NA,survey-text,22,211675
ObjectId(5ffe0fdae76abe1e679492fc),full_sample,46,35GCEFQ6I6D5794FPUTL827FML73ZL,strawberry,7837.100000004284,catch,NA,catch_trial.jpg,NA,survey-text,17,202278
ObjectId(5ffe0fdbe76abe1e679492fd),full_sample,163,3TR2532VIQJE4DMTQAOXRBV9DEW6J9,relaxing,5136.310000001686,tangram,isolated,tangram-164.jpg,NA,survey-text,13,119372
ObjectId(5ffe0fdce76abe1e679492fe),full_sample,69,3ZPPDN2SLWLTBG2ZAGGIE59JY789E2,running,5684.409999999843,tangram,isolated,tangram-64.jpg,NA,survey-text,2,25700
ObjectId(5ffe0fdce76abe1e679492ff),full_sample,8,3JMSRU9HQJJR8NF2DHLE6NYGPZREVN,throw,4591.245000017807,tangram,isolated,tangram-108.jpg,NA,survey-text,4,52468
ObjectId(5ffe0fdfe76abe1e67949300),full_sample,8,3JMSRU9HQJJR8NF2DHLE6NYGPZREVN,dance,2210.6550000607967,tangram,isolated,tangram-103.jpg,NA,survey-text,5,55189
ObjectId(5ffe0fdfe76abe1e67949301),full_sample,46,35GCEFQ6I6D5794FPUTL827FML73ZL,running,4988.974999985658,tangram,isolated,tangram-81.jpg,NA,survey-text,18,207771
ObjectId(5ffe0fe0e76abe1e67949302),full_sample,69,3ZPPDN2SLWLTBG2ZAGGIE59JY789E2,reading,4009.3350000006467,tangram,isolated,tangram-6.jpg,NA,survey-text,3,30222
ObjectId(5ffe0fe1e76abe1e67949303),full_sample,163,3TR2532VIQJE4DMTQAOXRBV9DEW6J9,leaning,5899.329999985639,tangram,isolated,tangram-140.jpg,NA,survey-text,14,125776
ObjectId(5ffe0fe3e76abe1e67949304),full_sample,8,3JMSRU9HQJJR8NF2DHLE6NYGPZREVN,basketball,3810.4649998713285,tangram,isolated,A1.jpg,NA,survey-text,6,59508
ObjectId(5ffe0fe4e76abe1e67949305),full_sample,47,352YTHGROW24YKNPJMSXI0VG4VMH4U,athlete,10109,tangram,isolated,tangram-90.jpg,NA,survey-text,23,222299
ObjectId(5ffe0fe5e76abe1e67949306),full_sample,69,3ZPPDN2SLWLTBG2ZAGGIE59JY789E2,crouching,4163.504999999532,tangram,isolated,tangram-9.jpg,NA,survey-text,4,34890
ObjectId(5ffe0fe5e76abe1e67949307),full_sample,46,35GCEFQ6I6D5794FPUTL827FML73ZL,falling,5879.460000083782,tangram,isolated,tangram-179.jpg,NA,survey-text,19,214154
ObjectId(5ffe0fe6e76abe1e67949308),full_sample,8,3JMSRU9HQJJR8NF2DHLE6NYGPZREVN,hill,2291.20000009425,tangram,isolated,tangram-87.jpg,NA,survey-text,7,62316
ObjectId(5ffe0fe8e76abe1e67949309),full_sample,163,3TR2532VIQJE4DMTQAOXRBV9DEW6J9,fighting,6532.209999975748,tangram,isolated,tangram-178.jpg,NA,survey-text,15,132823
ObjectId(5ffe0febe76abe1e6794930a),full_sample,8,3JMSRU9HQJJR8NF2DHLE6NYGPZREVN,jump,4222.779999952763,tangram,isolated,tangram-119.jpg,NA,survey-text,8,67053
ObjectId(5ffe0febe76abe1e6794930b),full_sample,69,3ZPPDN2SLWLTBG2ZAGGIE59JY789E2,skipping,5563.67500000033,tangram,isolated,V1.jpg,NA,survey-text,5,40959
ObjectId(5ffe0fede76abe1e6794930c),full_sample,46,35GCEFQ6I6D5794FPUTL827FML73ZL,hazardous,7366.309999953955,tangram,isolated,tangram-8.jpg,NA,survey-text,20,222023
ObjectId(5ffe0fefe76abe1e6794930d),full_sample,47,352YTHGROW24YKNPJMSXI0VG4VMH4U,sport,10502,tangram,isolated,tangram-106.jpg,NA,survey-text,24,233314
ObjectId(5ffe0fefe76abe1e6794930e),full_sample,8,3JMSRU9HQJJR8NF2DHLE6NYGPZREVN,dance,3185.25500013493,tangram,isolated,tangram-30.jpg,NA,survey-text,9,70748
ObjectId(5ffe0fefe76abe1e6794930f),full_sample,69,3ZPPDN2SLWLTBG2ZAGGIE59JY789E2,dancing,3672.5100000003295,tangram,isolated,tangram-103.jpg,NA,survey-text,6,45135
ObjectId(5ffe0ff2e76abe1e67949310),full_sample,46,35GCEFQ6I6D5794FPUTL827FML73ZL,sports,3639.9400000227615,tangram,isolated,tangram-48.jpg,NA,survey-text,21,226167
ObjectId(5ffe0ff2e76abe1e67949311),full_sample,8,3JMSRU9HQJJR8NF2DHLE6NYGPZREVN,walk,2994.359999895096,tangram,isolated,tangram-96.jpg,NA,survey-text,10,74270
ObjectId(5ffe0ff3e76abe1e67949312),full_sample,163,3TR2532VIQJE4DMTQAOXRBV9DEW6J9,huddling,10401.24000000651,tangram,isolated,tangram-9.jpg,NA,survey-text,16,143732
ObjectId(5ffe0ff4e76abe1e67949313),full_sample,8,3JMSRU9HQJJR8NF2DHLE6NYGPZREVN,run,1792.5849999301136,tangram,isolated,tangram-55.jpg,NA,survey-text,11,76572
ObjectId(5ffe0ff5e76abe1e67949314),full_sample,69,3ZPPDN2SLWLTBG2ZAGGIE59JY789E2,sitting,4847.53499999988,tangram,isolated,tangram-164.jpg,NA,survey-text,7,50487
ObjectId(5ffe0ff6e76abe1e67949315),full_sample,47,352YTHGROW24YKNPJMSXI0VG4VMH4U,running,6741,tangram,isolated,F1.jpg,NA,survey-text,25,240571
ObjectId(5ffe0ff8e76abe1e67949316),full_sample,163,3TR2532VIQJE4DMTQAOXRBV9DEW6J9,strawberry,4688.869999983581,catch,NA,catch_trial.jpg,NA,survey-text,17,148938
ObjectId(5ffe0ff9e76abe1e67949317),full_sample,69,3ZPPDN2SLWLTBG2ZAGGIE59JY789E2,running,3406.380000000354,tangram,isolated,tangram-55.jpg,NA,survey-text,8,54398
ObjectId(5ffe0ff9e76abe1e67949318),full_sample,46,35GCEFQ6I6D5794FPUTL827FML73ZL,friends,6969.400000059977,tangram,isolated,tangram-53.jpg,NA,survey-text,22,233639
ObjectId(5ffe0ffbe76abe1e67949319),full_sample,8,3JMSRU9HQJJR8NF2DHLE6NYGPZREVN,hoop,6206.119999988005,tangram,isolated,tangram-126.jpg,NA,survey-text,12,83293
ObjectId(5ffe0ffde76abe1e6794931a),full_sample,47,352YTHGROW24YKNPJMSXI0VG4VMH4U,sitting,6441,tangram,isolated,tangram-164.jpg,NA,survey-text,26,247531
ObjectId(5ffe0ffde76abe1e6794931b),full_sample,69,3ZPPDN2SLWLTBG2ZAGGIE59JY789E2,jumping,4287.865000000238,tangram,isolated,tangram-192.jpg,NA,survey-text,9,59191
ObjectId(5ffe0ffee76abe1e6794931c),full_sample,8,3JMSRU9HQJJR8NF2DHLE6NYGPZREVN,jump,2582.440000027418,tangram,isolated,tangram-111.jpg,NA,survey-text,13,86388
ObjectId(5ffe0fffe76abe1e6794931d),full_sample,46,35GCEFQ6I6D5794FPUTL827FML73ZL,education,5330.590000026859,tangram,isolated,tangram-6.jpg,NA,survey-text,23,239484
ObjectId(5ffe0fffe76abe1e6794931e),full_sample,163,3TR2532VIQJE4DMTQAOXRBV9DEW6J9,sprinting,6840.895000001183,tangram,isolated,tangram-67.jpg,NA,survey-text,18,156290
ObjectId(5ffe1000e76abe1e6794931f),full_sample,69,3ZPPDN2SLWLTBG2ZAGGIE59JY789E2,walking,2399.1949999999633,tangram,isolated,tangram-171.jpg,NA,survey-text,10,62094
ObjectId(5ffe1001e76abe1e67949320),full_sample,8,3JMSRU9HQJJR8NF2DHLE6NYGPZREVN,stand,2022.5900001823902,tangram,isolated,Y1.jpg,NA,survey-text,14,88926
ObjectId(5ffe1004e76abe1e67949321),full_sample,8,3JMSRU9HQJJR8NF2DHLE6NYGPZREVN,love,2848.0749998707324,tangram,isolated,tangram-179.jpg,NA,survey-text,15,92285
ObjectId(5ffe1006e76abe1e67949322),full_sample,47,352YTHGROW24YKNPJMSXI0VG4VMH4U,snake,8587,tangram,isolated,tangram-155.jpg,NA,survey-text,27,256626
ObjectId(5ffe1006e76abe1e67949323),full_sample,69,3ZPPDN2SLWLTBG2ZAGGIE59JY789E2,still,5396.8599999998405,tangram,isolated,Y1.jpg,NA,survey-text,11,67995
ObjectId(5ffe1007e76abe1e67949324),full_sample,46,35GCEFQ6I6D5794FPUTL827FML73ZL,doctor,7957.389999995939,tangram,isolated,K1.jpg,NA,survey-text,24,247945
ObjectId(5ffe1009e76abe1e67949325),full_sample,163,3TR2532VIQJE4DMTQAOXRBV9DEW6J9,prancing,8606.890000024578,tangram,isolated,tangram-48.jpg,NA,survey-text,19,165399
ObjectId(5ffe100be76abe1e67949326),full_sample,47,352YTHGROW24YKNPJMSXI0VG4VMH4U,cape,4573,tangram,isolated,N1.jpg,NA,survey-text,28,261706
ObjectId(5ffe100ee76abe1e67949327),full_sample,69,3ZPPDN2SLWLTBG2ZAGGIE59JY789E2,straight,7098.245000000141,tangram,isolated,C2.jpg,NA,survey-text,12,75598
ObjectId(5ffe100fe76abe1e67949328),full_sample,46,35GCEFQ6I6D5794FPUTL827FML73ZL,meeting,7106.635000091046,tangram,isolated,tangram-164.jpg,NA,survey-text,25,255555
ObjectId(5ffe1010e76abe1e6794932a),full_sample,163,3TR2532VIQJE4DMTQAOXRBV9DEW6J9,stealing,7428.690000000643,tangram,isolated,A2.jpg,NA,survey-text,20,173333
ObjectId(5ffe1012e76abe1e6794932b),full_sample,8,3JMSRU9HQJJR8NF2DHLE6NYGPZREVN,excitement,13357.855000067502,tangram,isolated,E1.jpg,NA,survey-text,16,106156
ObjectId(5ffe1013e76abe1e6794932c),full_sample,69,3ZPPDN2SLWLTBG2ZAGGIE59JY789E2,fat,4359.995000000708,tangram,isolated,tangram-71.jpg,NA,survey-text,13,80464
ObjectId(5ffe1014e76abe1e6794932d),full_sample,47,352YTHGROW24YKNPJMSXI0VG4VMH4U,sculpture,8901,tangram,isolated,tangram-142.jpg,NA,survey-text,29,271122
ObjectId(5ffe1016e76abe1e6794932e),full_sample,46,35GCEFQ6I6D5794FPUTL827FML73ZL,celebration,6461.140000028536,tangram,isolated,tangram-4.jpg,NA,survey-text,26,262531
ObjectId(5ffe1018e76abe1e67949330),full_sample,69,3ZPPDN2SLWLTBG2ZAGGIE59JY789E2,jumping,4738.5749999994005,tangram,isolated,F1.jpg,NA,survey-text,14,85707
ObjectId(5ffe1019e76abe1e67949331),full_sample,163,3TR2532VIQJE4DMTQAOXRBV9DEW6J9,listening,7824.055000004591,tangram,isolated,tangram-120.jpg,NA,survey-text,21,181676
ObjectId(5ffe1019e76abe1e67949332),full_sample,8,3JMSRU9HQJJR8NF2DHLE6NYGPZREVN,strawberry,6362.029999960214,catch,NA,catch_trial.jpg,NA,survey-text,17,113028
ObjectId(5ffe101de76abe1e67949333),full_sample,8,3JMSRU9HQJJR8NF2DHLE6NYGPZREVN,jump,3978.099999949336,tangram,isolated,tangram-8.jpg,NA,survey-text,18,117518
ObjectId(5ffe101ee76abe1e67949334),full_sample,69,3ZPPDN2SLWLTBG2ZAGGIE59JY789E2,bending,5480.174999999697,tangram,isolated,K1.jpg,NA,survey-text,15,91691
ObjectId(5ffe1020e76abe1e67949335),full_sample,46,35GCEFQ6I6D5794FPUTL827FML73ZL,gathering,9549.18499989435,tangram,isolated,tangram-114.jpg,NA,survey-text,27,272583
ObjectId(5ffe1020e76abe1e67949336),full_sample,47,352YTHGROW24YKNPJMSXI0VG4VMH4U,matron,11265,tangram,isolated,tangram-120.jpg,NA,survey-text,30,282898
ObjectId(5ffe1020e76abe1e67949337),full_sample,8,3JMSRU9HQJJR8NF2DHLE6NYGPZREVN,dance,2361.97999981232,tangram,isolated,tangram-99.jpg,NA,survey-text,19,120388
ObjectId(5ffe1021e76abe1e67949338),full_sample,69,3ZPPDN2SLWLTBG2ZAGGIE59JY789E2,reading,2692.099999999293,tangram,isolated,tangram-4.jpg,NA,survey-text,16,94887
ObjectId(5ffe1023e76abe1e67949339),full_sample,8,3JMSRU9HQJJR8NF2DHLE6NYGPZREVN,jump,2624.5399999897927,tangram,isolated,tangram-164.jpg,NA,survey-text,20,123532
ObjectId(5ffe1025e76abe1e6794933a),full_sample,46,35GCEFQ6I6D5794FPUTL827FML73ZL,ladies,4999.775000032969,tangram,isolated,tangram-146.jpg,NA,survey-text,28,278086
ObjectId(5ffe1026e76abe1e6794933b),full_sample,8,3JMSRU9HQJJR8NF2DHLE6NYGPZREVN,run,1857.920000096783,tangram,isolated,tangram-81.jpg,NA,survey-text,21,125900
ObjectId(5ffe1026e76abe1e6794933c),full_sample,69,3ZPPDN2SLWLTBG2ZAGGIE59JY789E2,strawberry,4218.824999999924,catch,NA,catch_trial.jpg,NA,survey-text,17,99610
ObjectId(5ffe1027e76abe1e6794933d),full_sample,163,3TR2532VIQJE4DMTQAOXRBV9DEW6J9,happy,13794.23499997938,tangram,isolated,tangram-30.jpg,NA,survey-text,22,195984
ObjectId(5ffe1028e76abe1e6794933e),full_sample,8,3JMSRU9HQJJR8NF2DHLE6NYGPZREVN,run,1759.0149999596179,tangram,isolated,N1.jpg,NA,survey-text,22,128172
ObjectId(5ffe1028e76abe1e6794933f),full_sample,46,35GCEFQ6I6D5794FPUTL827FML73ZL,men,2439.6249999990687,tangram,isolated,B1.jpg,NA,survey-text,29,281028
ObjectId(5ffe1029e76abe1e67949340),full_sample,47,352YTHGROW24YKNPJMSXI0VG4VMH4U,dog,8730,tangram,isolated,tangram-178.jpg,NA,survey-text,31,292138
ObjectId(5ffe102ae76abe1e67949341),full_sample,69,3ZPPDN2SLWLTBG2ZAGGIE59JY789E2,leaping,3598.0550000003714,tangram,isolated,tangram-67.jpg,NA,survey-text,18,103715
ObjectId(5ffe102be76abe1e67949342),full_sample,8,3JMSRU9HQJJR8NF2DHLE6NYGPZREVN,stand,2218.540000030771,tangram,isolated,G1.jpg,NA,survey-text,23,130901
ObjectId(5ffe102ce76abe1e67949343),full_sample,163,3TR2532VIQJE4DMTQAOXRBV9DEW6J9,swinging,4459.044999995967,tangram,isolated,tangram-119.jpg,NA,survey-text,23,200951
ObjectId(5ffe102ce76abe1e67949344),full_sample,46,35GCEFQ6I6D5794FPUTL827FML73ZL,dancing,3471.6349999653175,tangram,isolated,tangram-32.jpg,NA,survey-text,30,285003
ObjectId(5ffe102de76abe1e67949345),full_sample,8,3JMSRU9HQJJR8NF2DHLE6NYGPZREVN,run,1735.4049999266863,tangram,isolated,F1.jpg,NA,survey-text,24,133148
ObjectId(5ffe102fe76abe1e67949346),full_sample,8,3JMSRU9HQJJR8NF2DHLE6NYGPZREVN,stand,1749.5300001464784,tangram,isolated,C2.jpg,NA,survey-text,25,135412
ObjectId(5ffe1032e76abe1e67949347),full_sample,69,3ZPPDN2SLWLTBG2ZAGGIE59JY789E2,laying,7764.489999999583,tangram,isolated,D1.jpg,NA,survey-text,19,111986
ObjectId(5ffe1033e76abe1e67949348),full_sample,46,35GCEFQ6I6D5794FPUTL827FML73ZL,studying,5966.9349999167025,tangram,isolated,tangram-71.jpg,NA,survey-text,31,291474
ObjectId(5ffe1033e76abe1e67949349),full_sample,8,3JMSRU9HQJJR8NF2DHLE6NYGPZREVN,chicken,3431.71999999322,tangram,isolated,tangram-155.jpg,NA,survey-text,26,139356
ObjectId(5ffe1037e76abe1e6794934a),full_sample,8,3JMSRU9HQJJR8NF2DHLE6NYGPZREVN,tree,2905.830000061542,tangram,isolated,tangram-146.jpg,NA,survey-text,27,142772
ObjectId(5ffe1037e76abe1e6794934b),full_sample,46,35GCEFQ6I6D5794FPUTL827FML73ZL,jogging,3874.874999979511,tangram,isolated,N1.jpg,NA,survey-text,32,295852
ObjectId(5ffe1038e76abe1e6794934c),full_sample,69,3ZPPDN2SLWLTBG2ZAGGIE59JY789E2,skipping,5447.589999999764,tangram,isolated,tangram-81.jpg,NA,survey-text,20,117939
ObjectId(5ffe1039e76abe1e6794934d),full_sample,8,3JMSRU9HQJJR8NF2DHLE6NYGPZREVN,jump,1848.1799999717623,tangram,isolated,tangram-53.jpg,NA,survey-text,28,145132
ObjectId(5ffe1039e76abe1e6794934e),full_sample,163,3TR2532VIQJE4DMTQAOXRBV9DEW6J9,defiant,12612.495000008494,tangram,isolated,tangram-103.jpg,NA,survey-text,24,214069
ObjectId(5ffe103ae76abe1e6794934f),full_sample,159,3BQU611VFQ9CGKBI250WMR887AS99S,Chicken,35019.77499999339,tangram,isolated,tangram-146.jpg,NA,survey-text,2,51837
ObjectId(5ffe103be76abe1e67949350),full_sample,8,3JMSRU9HQJJR8NF2DHLE6NYGPZREVN,jump,1682.6850001234561,tangram,isolated,tangram-183.jpg,NA,survey-text,29,147324
ObjectId(5ffe103ce76abe1e67949351),full_sample,47,352YTHGROW24YKNPJMSXI0VG4VMH4U,hat,17775,tangram,isolated,tangram-71.jpg,NA,survey-text,32,310425
ObjectId(5ffe103ce76abe1e67949352),full_sample,69,3ZPPDN2SLWLTBG2ZAGGIE59JY789E2,kneeling,3224.785000000338,tangram,isolated,tangram-87.jpg,NA,survey-text,21,121669
ObjectId(5ffe103de76abe1e67949353),full_sample,8,3JMSRU9HQJJR8NF2DHLE6NYGPZREVN,jump,1626.2699998915195,tangram,isolated,tangram-178.jpg,NA,survey-text,30,149460
ObjectId(5ffe103fe76abe1e67949354),full_sample,163,3TR2532VIQJE4DMTQAOXRBV9DEW6J9,nerdy,5564.459999994142,tangram,isolated,H1.jpg,NA,survey-text,25,220138
ObjectId(5ffe103fe76abe1e67949355),full_sample,8,3JMSRU9HQJJR8NF2DHLE6NYGPZREVN,jump,1623.4049999620765,tangram,isolated,tangram-140.jpg,NA,survey-text,31,151596
ObjectId(5ffe1042e76abe1e67949356),full_sample,8,3JMSRU9HQJJR8NF2DHLE6NYGPZREVN,hill,1879.820000147447,tangram,isolated,M1.jpg,NA,survey-text,32,153989
ObjectId(5ffe1043e76abe1e67949357),full_sample,69,3ZPPDN2SLWLTBG2ZAGGIE59JY789E2,jumping,6355.050000000119,tangram,isolated,tangram-90.jpg,NA,survey-text,22,128529
ObjectId(5ffe1044e76abe1e67949358),full_sample,163,3TR2532VIQJE4DMTQAOXRBV9DEW6J9,serving,3998.859999992419,tangram,isolated,I1.jpg,NA,survey-text,26,224640
ObjectId(5ffe1049e76abe1e67949359),full_sample,69,3ZPPDN2SLWLTBG2ZAGGIE59JY789E2,walking,5292.045000000158,tangram,isolated,B1.jpg,NA,survey-text,23,134325
ObjectId(5ffe104de76abe1e6794935a),full_sample,69,3ZPPDN2SLWLTBG2ZAGGIE59JY789E2,jumping,3655.339999999327,tangram,isolated,tangram-119.jpg,NA,survey-text,24,138501
ObjectId(5ffe104ee76abe1e6794935b),full_sample,163,3TR2532VIQJE4DMTQAOXRBV9DEW6J9,scared,10092.070000013337,tangram,isolated,W1.jpg,NA,survey-text,27,235235
ObjectId(5ffe1050e76abe1e6794935c),full_sample,69,3ZPPDN2SLWLTBG2ZAGGIE59JY789E2,kicking,2978.530000000319,tangram,isolated,tangram-48.jpg,NA,survey-text,25,141984
ObjectId(5ffe1055e76abe1e6794935e),full_sample,163,3TR2532VIQJE4DMTQAOXRBV9DEW6J9,bowing,5780.564999993658,tangram,isolated,C1.jpg,NA,survey-text,28,241520
ObjectId(5ffe1056e76abe1e6794935f),full_sample,69,3ZPPDN2SLWLTBG2ZAGGIE59JY789E2,praising,5081.65499999997,tangram,isolated,tangram-53.jpg,NA,survey-text,26,147570
ObjectId(5ffe105be76abe1e67949361),full_sample,69,3ZPPDN2SLWLTBG2ZAGGIE59JY789E2,walking,4942.885000000388,tangram,isolated,tangram-96.jpg,NA,survey-text,27,153017
ObjectId(5ffe1060e76abe1e67949362),full_sample,163,3TR2532VIQJE4DMTQAOXRBV9DEW6J9,stiff,11031.214999995427,tangram,isolated,tangram-64.jpg,NA,survey-text,29,253064
ObjectId(5ffe1061e76abe1e67949363),full_sample,69,3ZPPDN2SLWLTBG2ZAGGIE59JY789E2,running,4843.049999999494,tangram,isolated,W1.jpg,NA,survey-text,28,158365
ObjectId(5ffe1064e76abe1e67949364),full_sample,69,3ZPPDN2SLWLTBG2ZAGGIE59JY789E2,dancing,2582.1400000004214,tangram,isolated,tangram-99.jpg,NA,survey-text,29,161451
ObjectId(5ffe1065e76abe1e67949365),full_sample,163,3TR2532VIQJE4DMTQAOXRBV9DEW6J9,ringing,4264.490000001388,tangram,isolated,tangram-6.jpg,NA,survey-text,30,257845
ObjectId(5ffe1066e76abe1e67949366),full_sample,118,3WS1NTTKEZ13L0EI5VHV3CTQ74TF0E,Statue,12528.18500000285,tangram,isolated,tangram-74.jpg,NA,survey-text,2,361023
ObjectId(5ffe1068e76abe1e67949367),full_sample,69,3ZPPDN2SLWLTBG2ZAGGIE59JY789E2,bending,4031.074999999866,tangram,isolated,tangram-178.jpg,NA,survey-text,30,165989
ObjectId(5ffe106ce76abe1e67949368),full_sample,163,3TR2532VIQJE4DMTQAOXRBV9DEW6J9,starting,6654.374999983702,tangram,isolated,tangram-55.jpg,NA,survey-text,31,265003
ObjectId(5ffe106ce76abe1e67949369),full_sample,118,3WS1NTTKEZ13L0EI5VHV3CTQ74TF0E,yoga,5758.069999981672,tangram,isolated,tangram-108.jpg,NA,survey-text,3,367285
ObjectId(5ffe106de76abe1e6794936a),full_sample,69,3ZPPDN2SLWLTBG2ZAGGIE59JY789E2,jumping,4270.204999999813,tangram,isolated,L1.jpg,NA,survey-text,31,170764
ObjectId(5ffe1076e76abe1e6794936b),full_sample,118,3WS1NTTKEZ13L0EI5VHV3CTQ74TF0E,kicking,9184.16999996407,tangram,isolated,tangram-164.jpg,NA,survey-text,4,376977
ObjectId(5ffe107ae76abe1e6794936c),full_sample,163,3TR2532VIQJE4DMTQAOXRBV9DEW6J9,selling,13574.219999980414,tangram,isolated,tangram-71.jpg,NA,survey-text,32,279081
ObjectId(5ffe107be76abe1e6794936d),full_sample,118,3WS1NTTKEZ13L0EI5VHV3CTQ74TF0E,carrying,4155.7449999963865,tangram,isolated,tangram-9.jpg,NA,survey-text,5,381645
ObjectId(5ffe107de76abe1e6794936e),full_sample,69,3ZPPDN2SLWLTBG2ZAGGIE59JY789E2,flailing,15204.125000000204,tangram,isolated,tangram-106.jpg,NA,survey-text,32,186474
ObjectId(5ffe107ee76abe1e6794936f),full_sample,118,3WS1NTTKEZ13L0EI5VHV3CTQ74TF0E,sad,2925.4349999828264,tangram,isolated,B1.jpg,NA,survey-text,6,385077
ObjectId(5ffe1082e76abe1e67949370),full_sample,118,3WS1NTTKEZ13L0EI5VHV3CTQ74TF0E,dancing,3900.710000016261,tangram,isolated,tangram-187.jpg,NA,survey-text,7,389493
ObjectId(5ffe108ce76abe1e67949371),full_sample,118,3WS1NTTKEZ13L0EI5VHV3CTQ74TF0E,posing,8845.770000014454,tangram,isolated,F1.jpg,NA,survey-text,8,398849
ObjectId(5ffe1091e76abe1e67949374),full_sample,118,3WS1NTTKEZ13L0EI5VHV3CTQ74TF0E,yawning,4421.520000032615,tangram,isolated,tangram-96.jpg,NA,survey-text,9,403789
ObjectId(5ffe1097e76abe1e67949375),full_sample,56,3S06PH7KSST6U5L4A8Q5TH9F0JJ1DS,man,5982.03499999363,tangram,isolated,R1.jpg,NA,survey-text,2,23174
ObjectId(5ffe1098e76abe1e67949376),full_sample,118,3WS1NTTKEZ13L0EI5VHV3CTQ74TF0E,ballet,6937.289999972563,tangram,isolated,tangram-168.jpg,NA,survey-text,10,411229
ObjectId(5ffe109be76abe1e67949377),full_sample,56,3S06PH7KSST6U5L4A8Q5TH9F0JJ1DS,run,3081.3750000088476,tangram,isolated,tangram-178.jpg,NA,survey-text,3,26766
ObjectId(5ffe109ce76abe1e67949378),full_sample,118,3WS1NTTKEZ13L0EI5VHV3CTQ74TF0E,standing,3380.8399999979883,tangram,isolated,C2.jpg,NA,survey-text,11,415125
ObjectId(5ffe109ee76abe1e67949379),full_sample,56,3S06PH7KSST6U5L4A8Q5TH9F0JJ1DS,running,2371.255000005476,tangram,isolated,tangram-67.jpg,NA,survey-text,4,29646
ObjectId(5ffe10a2e76abe1e6794937a),full_sample,56,3S06PH7KSST6U5L4A8Q5TH9F0JJ1DS,sitting,3263.8549999683164,tangram,isolated,tangram-120.jpg,NA,survey-text,5,33421
ObjectId(5ffe10a8e76abe1e6794937b),full_sample,56,3S06PH7KSST6U5L4A8Q5TH9F0JJ1DS,reading,5440.4799999902025,tangram,isolated,J1.jpg,NA,survey-text,6,39373
ObjectId(5ffe10b1e76abe1e6794937e),full_sample,56,3S06PH7KSST6U5L4A8Q5TH9F0JJ1DS,women,8418.089999991935,tangram,isolated,tangram-111.jpg,NA,survey-text,7,48301
ObjectId(5ffe10bfe76abe1e6794937f),full_sample,56,3S06PH7KSST6U5L4A8Q5TH9F0JJ1DS,judge,14235.539999965113,tangram,isolated,tangram-53.jpg,NA,survey-text,8,63045
ObjectId(5ffe10c4e76abe1e67949381),full_sample,56,3S06PH7KSST6U5L4A8Q5TH9F0JJ1DS,teen,4003.1299999682233,tangram,isolated,W1.jpg,NA,survey-text,9,67556
ObjectId(5ffe10c7e76abe1e67949383),full_sample,56,3S06PH7KSST6U5L4A8Q5TH9F0JJ1DS,sad,2266.475000011269,tangram,isolated,C2.jpg,NA,survey-text,10,70332
ObjectId(5ffe10cce76abe1e67949384),full_sample,56,3S06PH7KSST6U5L4A8Q5TH9F0JJ1DS,focus,4443.150000006426,tangram,isolated,tangram-108.jpg,NA,survey-text,11,75285
ObjectId(5ffe10cee76abe1e67949385),full_sample,56,3S06PH7KSST6U5L4A8Q5TH9F0JJ1DS,run,1490.7050000037998,tangram,isolated,tangram-32.jpg,NA,survey-text,12,77285
ObjectId(5ffe10d0e76abe1e67949386),full_sample,56,3S06PH7KSST6U5L4A8Q5TH9F0JJ1DS,walk,2171.7049999861047,tangram,isolated,P1.jpg,NA,survey-text,13,79966
ObjectId(5ffe10d7e76abe1e67949387),full_sample,57,3QHK8ZVMIN7Q5FROPMHII6UTV4CBL1,inspecting,15978.344999981346,tangram,isolated,tangram-6.jpg,NA,survey-text,2,298853
ObjectId(5ffe10d8e76abe1e67949388),full_sample,56,3S06PH7KSST6U5L4A8Q5TH9F0JJ1DS,costume,6922.505000024103,tangram,isolated,M1.jpg,NA,survey-text,14,87397
ObjectId(5ffe10dce76abe1e67949389),full_sample,56,3S06PH7KSST6U5L4A8Q5TH9F0JJ1DS,reading,3401.949999970384,tangram,isolated,tangram-6.jpg,NA,survey-text,15,91309
ObjectId(5ffe10e0e76abe1e6794938a),full_sample,57,3QHK8ZVMIN7Q5FROPMHII6UTV4CBL1,walking,8496.034999989206,tangram,isolated,tangram-96.jpg,NA,survey-text,3,307852
ObjectId(5ffe10e3e76abe1e6794938b),full_sample,56,3S06PH7KSST6U5L4A8Q5TH9F0JJ1DS,stretching,7034.944999963045,tangram,isolated,tangram-168.jpg,NA,survey-text,16,98853
ObjectId(5ffe10e6e76abe1e6794938c),full_sample,57,3QHK8ZVMIN7Q5FROPMHII6UTV4CBL1,running,5251.584999990882,tangram,isolated,R1.jpg,NA,survey-text,4,313605
ObjectId(5ffe10ede76abe1e6794938d),full_sample,57,3QHK8ZVMIN7Q5FROPMHII6UTV4CBL1,sitting,6539.744999987306,tangram,isolated,tangram-143.jpg,NA,survey-text,5,320647
ObjectId(5ffe10efe76abe1e6794938e),full_sample,56,3S06PH7KSST6U5L4A8Q5TH9F0JJ1DS,strawberry,10956.795000005513,catch,NA,catch_trial.jpg,NA,survey-text,17,110317
ObjectId(5ffe10f1e76abe1e6794938f),full_sample,57,3QHK8ZVMIN7Q5FROPMHII6UTV4CBL1,running,3667.809999984456,tangram,isolated,N1.jpg,NA,survey-text,6,324818
ObjectId(5ffe10f3e76abe1e67949390),full_sample,56,3S06PH7KSST6U5L4A8Q5TH9F0JJ1DS,lying,3649.459999985993,tangram,isolated,D1.jpg,NA,survey-text,18,114478
ObjectId(5ffe10f5e76abe1e67949391),full_sample,56,3S06PH7KSST6U5L4A8Q5TH9F0JJ1DS,run,1586.9950000196695,tangram,isolated,N1.jpg,NA,survey-text,19,116573
ObjectId(5ffe10f6e76abe1e67949392),full_sample,57,3QHK8ZVMIN7Q5FROPMHII6UTV4CBL1,dancing,4504.829999990761,tangram,isolated,tangram-119.jpg,NA,survey-text,7,329825
ObjectId(5ffe10fae76abe1e67949393),full_sample,56,3S06PH7KSST6U5L4A8Q5TH9F0JJ1DS,jumping,4307.484999997541,tangram,isolated,E1.jpg,NA,survey-text,20,121389
ObjectId(5ffe10fae76abe1e67949394),full_sample,57,3QHK8ZVMIN7Q5FROPMHII6UTV4CBL1,running,3963.870000006864,tangram,isolated,tangram-55.jpg,NA,survey-text,8,334292
ObjectId(5ffe10ffe76abe1e67949395),full_sample,57,3QHK8ZVMIN7Q5FROPMHII6UTV4CBL1,throwing,4425.479999976233,tangram,isolated,A2.jpg,NA,survey-text,9,339219
ObjectId(5ffe1101e76abe1e67949396),full_sample,56,3S06PH7KSST6U5L4A8Q5TH9F0JJ1DS,diamond,6354.644999955781,tangram,isolated,Y1.jpg,NA,survey-text,21,128253
ObjectId(5ffe1106e76abe1e67949397),full_sample,56,3S06PH7KSST6U5L4A8Q5TH9F0JJ1DS,eating,4828.05000001099,tangram,isolated,tangram-179.jpg,NA,survey-text,22,133592
ObjectId(5ffe1107e76abe1e67949398),full_sample,57,3QHK8ZVMIN7Q5FROPMHII6UTV4CBL1,kicking,7707.064999995055,tangram,isolated,tangram-164.jpg,NA,survey-text,10,347428
ObjectId(5ffe110ce76abe1e67949399),full_sample,57,3QHK8ZVMIN7Q5FROPMHII6UTV4CBL1,dancing,4145.365000003949,tangram,isolated,tangram-187.jpg,NA,survey-text,11,352076
ObjectId(5ffe110de76abe1e6794939a),full_sample,56,3S06PH7KSST6U5L4A8Q5TH9F0JJ1DS,waving,6317.970000032801,tangram,isolated,tangram-146.jpg,NA,survey-text,23,140421
ObjectId(5ffe1113e76abe1e6794939b),full_sample,57,3QHK8ZVMIN7Q5FROPMHII6UTV4CBL1,leaning,5965.459999977611,tangram,isolated,tangram-140.jpg,NA,survey-text,12,358544
ObjectId(5ffe1114e76abe1e6794939c),full_sample,56,3S06PH7KSST6U5L4A8Q5TH9F0JJ1DS,exposing,6579.969999962486,tangram,isolated,tangram-103.jpg,NA,survey-text,24,147511
ObjectId(5ffe1117e76abe1e6794939d),full_sample,57,3QHK8ZVMIN7Q5FROPMHII6UTV4CBL1,dancing,4324.024999979883,tangram,isolated,tangram-99.jpg,NA,survey-text,13,363370
ObjectId(5ffe1118e76abe1e6794939e),full_sample,56,3S06PH7KSST6U5L4A8Q5TH9F0JJ1DS,kicking,3385.604999959469,tangram,isolated,tangram-48.jpg,NA,survey-text,25,151405
ObjectId(5ffe111de76abe1e6794939f),full_sample,56,3S06PH7KSST6U5L4A8Q5TH9F0JJ1DS,bending,4737.994999974035,tangram,isolated,tangram-9.jpg,NA,survey-text,26,156653
ObjectId(5ffe111ee76abe1e679493a0),full_sample,57,3QHK8ZVMIN7Q5FROPMHII6UTV4CBL1,running,5847.1300000092015,tangram,isolated,tangram-67.jpg,NA,survey-text,14,369720
ObjectId(5ffe1121e76abe1e679493a1),full_sample,56,3S06PH7KSST6U5L4A8Q5TH9F0JJ1DS,jumping,3978.4900000086054,tangram,isolated,tangram-8.jpg,NA,survey-text,27,161141
ObjectId(5ffe1125e76abe1e679493a2),full_sample,56,3S06PH7KSST6U5L4A8Q5TH9F0JJ1DS,sitting,2879.2400000384077,tangram,isolated,G1.jpg,NA,survey-text,28,164533
ObjectId(5ffe1127e76abe1e679493a3),full_sample,57,3QHK8ZVMIN7Q5FROPMHII6UTV4CBL1,kicking,8405.594999989262,tangram,isolated,tangram-48.jpg,NA,survey-text,15,378628
ObjectId(5ffe112ae76abe1e679493a4),full_sample,56,3S06PH7KSST6U5L4A8Q5TH9F0JJ1DS,stand,5090.615000051912,tangram,isolated,tangram-4.jpg,NA,survey-text,29,170133
ObjectId(5ffe112de76abe1e679493a5),full_sample,57,3QHK8ZVMIN7Q5FROPMHII6UTV4CBL1,strolling,6028.3049999852665,tangram,isolated,B1.jpg,NA,survey-text,16,385159
ObjectId(5ffe112de76abe1e679493a6),full_sample,56,3S06PH7KSST6U5L4A8Q5TH9F0JJ1DS,walk,2435.1499999756925,tangram,isolated,A2.jpg,NA,survey-text,30,173077
ObjectId(5ffe1131e76abe1e679493a7),full_sample,56,3S06PH7KSST6U5L4A8Q5TH9F0JJ1DS,walk,3410.2399999974295,tangram,isolated,B1.jpg,NA,survey-text,31,176996
ObjectId(5ffe1135e76abe1e679493a8),full_sample,56,3S06PH7KSST6U5L4A8Q5TH9F0JJ1DS,jump,2835.574999975506,tangram,isolated,O1.jpg,NA,survey-text,32,180341
ObjectId(5ffe1138e76abe1e679493a9),full_sample,57,3QHK8ZVMIN7Q5FROPMHII6UTV4CBL1,strawberry,10297.420000017155,catch,NA,catch_trial.jpg,NA,survey-text,17,395958
ObjectId(5ffe1141e76abe1e679493aa),full_sample,57,3QHK8ZVMIN7Q5FROPMHII6UTV4CBL1,jogging,8852.619999990566,tangram,isolated,tangram-90.jpg,NA,survey-text,18,405313
ObjectId(5ffe1146e76abe1e679493ab),full_sample,57,3QHK8ZVMIN7Q5FROPMHII6UTV4CBL1,standing,3778.5149999835994,tangram,isolated,tangram-44.jpg,NA,survey-text,19,409594
ObjectId(5ffe114ee76abe1e679493ac),full_sample,57,3QHK8ZVMIN7Q5FROPMHII6UTV4CBL1,throwing,7938.114999997197,tangram,isolated,F1.jpg,NA,survey-text,20,418034
ObjectId(5ffe1154e76abe1e679493ad),full_sample,57,3QHK8ZVMIN7Q5FROPMHII6UTV4CBL1,presenting,5147.965000011027,tangram,isolated,I1.jpg,NA,survey-text,21,423684
ObjectId(5ffe1157e76abe1e679493ae),full_sample,57,3QHK8ZVMIN7Q5FROPMHII6UTV4CBL1,throwing,2846.1349999997765,tangram,isolated,tangram-150.jpg,NA,survey-text,22,427033
ObjectId(5ffe115ce76abe1e679493af),full_sample,57,3QHK8ZVMIN7Q5FROPMHII6UTV4CBL1,reading,4056.604999990668,tangram,isolated,Y1.jpg,NA,survey-text,23,431592
ObjectId(5ffe1163e76abe1e679493b0),full_sample,57,3QHK8ZVMIN7Q5FROPMHII6UTV4CBL1,chasing,6663.245000003371,tangram,isolated,W1.jpg,NA,survey-text,24,438758
ObjectId(5ffe1167e76abe1e679493b1),full_sample,57,3QHK8ZVMIN7Q5FROPMHII6UTV4CBL1,standing,4118.190000008326,tangram,isolated,P1.jpg,NA,survey-text,25,443379
ObjectId(5ffe116de76abe1e679493b4),full_sample,57,3QHK8ZVMIN7Q5FROPMHII6UTV4CBL1,leaning,5548.0399999942165,tangram,isolated,tangram-146.jpg,NA,survey-text,26,449429
ObjectId(5ffe1170e76abe1e679493b5),full_sample,56,3S06PH7KSST6U5L4A8Q5TH9F0JJ1DS,walk,4570.145000005141,tangram,isolated,A1.jpg,NA,survey-text,2,13713
ObjectId(5ffe1172e76abe1e679493b6),full_sample,56,3S06PH7KSST6U5L4A8Q5TH9F0JJ1DS,run,1790.9599999547936,tangram,isolated,tangram-119.jpg,NA,survey-text,3,16024
ObjectId(5ffe1173e76abe1e679493b7),full_sample,57,3QHK8ZVMIN7Q5FROPMHII6UTV4CBL1,standing,4638.57999999891,tangram,isolated,tangram-171.jpg,NA,survey-text,27,454569
ObjectId(5ffe1174e76abe1e679493b8),full_sample,56,3S06PH7KSST6U5L4A8Q5TH9F0JJ1DS,run,1714.5350000355393,tangram,isolated,tangram-67.jpg,NA,survey-text,4,18247
ObjectId(5ffe1176e76abe1e679493b9),full_sample,57,3QHK8ZVMIN7Q5FROPMHII6UTV4CBL1,standing,2957.45500002522,tangram,isolated,tangram-120.jpg,NA,survey-text,28,458029
ObjectId(5ffe1179e76abe1e679493ba),full_sample,56,3S06PH7KSST6U5L4A8Q5TH9F0JJ1DS,kicking,4218.105000036303,tangram,isolated,tangram-187.jpg,NA,survey-text,5,22976
ObjectId(5ffe117de76abe1e679493bb),full_sample,56,3S06PH7KSST6U5L4A8Q5TH9F0JJ1DS,stand,3540.785000019241,tangram,isolated,tangram-4.jpg,NA,survey-text,6,27032
ObjectId(5ffe1180e76abe1e679493bc),full_sample,56,3S06PH7KSST6U5L4A8Q5TH9F0JJ1DS,run,2017.5250000320375,tangram,isolated,A2.jpg,NA,survey-text,7,29560
ObjectId(5ffe1182e76abe1e679493bd),full_sample,57,3QHK8ZVMIN7Q5FROPMHII6UTV4CBL1,handstand,11609.089999983553,tangram,isolated,tangram-4.jpg,NA,survey-text,29,470140
ObjectId(5ffe1183e76abe1e679493be),full_sample,56,3S06PH7KSST6U5L4A8Q5TH9F0JJ1DS,sitting,2760.74499997776,tangram,isolated,tangram-164.jpg,NA,survey-text,8,32831
ObjectId(5ffe1187e76abe1e679493bf),full_sample,57,3QHK8ZVMIN7Q5FROPMHII6UTV4CBL1,catching,4366.594999999506,tangram,isolated,tangram-106.jpg,NA,survey-text,30,475009
ObjectId(5ffe1187e76abe1e679493c0),full_sample,56,3S06PH7KSST6U5L4A8Q5TH9F0JJ1DS,running,4009.630000044126,tangram,isolated,V1.jpg,NA,survey-text,9,37352
ObjectId(5ffe118be76abe1e679493c1),full_sample,56,3S06PH7KSST6U5L4A8Q5TH9F0JJ1DS,walk,3483.345000015106,tangram,isolated,tangram-126.jpg,NA,survey-text,10,41344
ObjectId(5ffe1195e76abe1e679493c2),full_sample,57,3QHK8ZVMIN7Q5FROPMHII6UTV4CBL1,boating,13852.925000013784,tangram,isolated,D1.jpg,NA,survey-text,31,489364
ObjectId(5ffe1199e76abe1e679493c3),full_sample,57,3QHK8ZVMIN7Q5FROPMHII6UTV4CBL1,running,2906.3699999824166,tangram,isolated,L1.jpg,NA,survey-text,32,492772
ObjectId(5ffe1199e76abe1e679493c4),full_sample,56,3S06PH7KSST6U5L4A8Q5TH9F0JJ1DS,ship,13174.869999988005,tangram,isolated,tangram-143.jpg,NA,survey-text,11,55030
ObjectId(5ffe119de76abe1e679493c5),full_sample,56,3S06PH7KSST6U5L4A8Q5TH9F0JJ1DS,walk,3768.42499995837,tangram,isolated,tangram-44.jpg,NA,survey-text,12,59310
ObjectId(5ffe11a2e76abe1e679493c6),full_sample,56,3S06PH7KSST6U5L4A8Q5TH9F0JJ1DS,speak,4039.069999998901,tangram,isolated,H1.jpg,NA,survey-text,13,63863
ObjectId(5ffe11a4e76abe1e679493c7),full_sample,56,3S06PH7KSST6U5L4A8Q5TH9F0JJ1DS,sad,2071.315000008326,tangram,isolated,B1.jpg,NA,survey-text,14,66446
ObjectId(5ffe11a7e76abe1e679493c8),full_sample,56,3S06PH7KSST6U5L4A8Q5TH9F0JJ1DS,kick,2478.324999974575,tangram,isolated,tangram-48.jpg,NA,survey-text,15,69438
ObjectId(5ffe11aae76abe1e679493c9),full_sample,56,3S06PH7KSST6U5L4A8Q5TH9F0JJ1DS,run,1826.070000010077,tangram,isolated,R1.jpg,NA,survey-text,16,71775
ObjectId(5ffe11b6e76abe1e679493ca),full_sample,56,3S06PH7KSST6U5L4A8Q5TH9F0JJ1DS,strawberry,11417.95999999158,catch,NA,catch_trial.jpg,NA,survey-text,17,83702
ObjectId(5ffe11b9e76abe1e679493cb),full_sample,56,3S06PH7KSST6U5L4A8Q5TH9F0JJ1DS,exposing,2930.675000010524,tangram,isolated,tangram-103.jpg,NA,survey-text,18,87143
ObjectId(5ffe11c0e76abe1e679493cc),full_sample,56,3S06PH7KSST6U5L4A8Q5TH9F0JJ1DS,point,5881.050000025425,tangram,isolated,tangram-114.jpg,NA,survey-text,19,93534
ObjectId(5ffe11c2e76abe1e679493cd),full_sample,56,3S06PH7KSST6U5L4A8Q5TH9F0JJ1DS,run,2347.28000004543,tangram,isolated,tangram-81.jpg,NA,survey-text,20,96393
ObjectId(5ffe11c7e76abe1e679493ce),full_sample,56,3S06PH7KSST6U5L4A8Q5TH9F0JJ1DS,lying,4171.899999957532,tangram,isolated,tangram-183.jpg,NA,survey-text,21,101079
ObjectId(5ffe11cde76abe1e679493cf),full_sample,56,3S06PH7KSST6U5L4A8Q5TH9F0JJ1DS,reading,5619.379999989178,tangram,isolated,J1.jpg,NA,survey-text,22,107207
ObjectId(5ffe11d0e76abe1e679493d0),full_sample,56,3S06PH7KSST6U5L4A8Q5TH9F0JJ1DS,walk,2281.620000023395,tangram,isolated,tangram-146.jpg,NA,survey-text,23,109999
ObjectId(5ffe11d2e76abe1e679493d1),full_sample,56,3S06PH7KSST6U5L4A8Q5TH9F0JJ1DS,run,1500.354999967385,tangram,isolated,tangram-90.jpg,NA,survey-text,24,112009
ObjectId(5ffe11dce76abe1e679493d2),full_sample,56,3S06PH7KSST6U5L4A8Q5TH9F0JJ1DS,stand,9990.600000019185,tangram,isolated,tangram-53.jpg,NA,survey-text,25,122511
ObjectId(5ffe11dfe76abe1e679493d3),full_sample,56,3S06PH7KSST6U5L4A8Q5TH9F0JJ1DS,walk,2154.4299999950454,tangram,isolated,tangram-171.jpg,NA,survey-text,26,125175
ObjectId(5ffe11e3e76abe1e679493d4),full_sample,56,3S06PH7KSST6U5L4A8Q5TH9F0JJ1DS,pray,3679.615000030026,tangram,isolated,C1.jpg,NA,survey-text,27,129367
ObjectId(5ffe11e6e76abe1e679493d5),full_sample,56,3S06PH7KSST6U5L4A8Q5TH9F0JJ1DS,dance,2385.4149999679066,tangram,isolated,tangram-168.jpg,NA,survey-text,28,132262
ObjectId(5ffe11eae76abe1e679493d6),full_sample,56,3S06PH7KSST6U5L4A8Q5TH9F0JJ1DS,point,3604.125000012573,tangram,isolated,tangram-96.jpg,NA,survey-text,29,136376
ObjectId(5ffe11ede76abe1e679493d7),full_sample,56,3S06PH7KSST6U5L4A8Q5TH9F0JJ1DS,eat,2375.6050000083633,tangram,isolated,tangram-179.jpg,NA,survey-text,30,139263
ObjectId(5ffe11f1e76abe1e679493d8),full_sample,56,3S06PH7KSST6U5L4A8Q5TH9F0JJ1DS,give,3337.1050000423566,tangram,isolated,I1.jpg,NA,survey-text,31,143111
ObjectId(5ffe11f5e76abe1e679493d9),full_sample,56,3S06PH7KSST6U5L4A8Q5TH9F0JJ1DS,jump,3466.965000028722,tangram,isolated,tangram-106.jpg,NA,survey-text,32,147095
ObjectId(5ffe124ce76abe1e679493dc),full_sample,44,3BQU611VFQ9CGKBI250WMR887AS99S,dance,8701.75999996718,tangram,isolated,tangram-32.jpg,NA,survey-text,2,197949
ObjectId(5ffe1251e76abe1e679493dd),full_sample,44,3BQU611VFQ9CGKBI250WMR887AS99S,run,4449.445000034757,tangram,isolated,tangram-55.jpg,NA,survey-text,3,202928
ObjectId(5ffe125ae76abe1e679493de),full_sample,44,3BQU611VFQ9CGKBI250WMR887AS99S,down,8346.98999999091,tangram,isolated,tangram-143.jpg,NA,survey-text,4,211787
ObjectId(5ffe1262e76abe1e679493df),full_sample,44,3BQU611VFQ9CGKBI250WMR887AS99S,walk,7816.055000061169,tangram,isolated,tangram-126.jpg,NA,survey-text,5,220177
ObjectId(5ffe126de76abe1e679493e0),full_sample,44,3BQU611VFQ9CGKBI250WMR887AS99S,study,10766.644999966957,tangram,isolated,J1.jpg,NA,survey-text,6,231455
ObjectId(5ffe1271e76abe1e679493e1),full_sample,44,3BQU611VFQ9CGKBI250WMR887AS99S,run,3705.3349999478087,tangram,isolated,N1.jpg,NA,survey-text,7,235673
ObjectId(5ffe1276e76abe1e679493e2),full_sample,44,3BQU611VFQ9CGKBI250WMR887AS99S,sit,4059.070000075735,tangram,isolated,tangram-87.jpg,NA,survey-text,8,240253
ObjectId(5ffe127be76abe1e679493e3),full_sample,44,3BQU611VFQ9CGKBI250WMR887AS99S,stand,4620.140000013635,tangram,isolated,H1.jpg,NA,survey-text,9,245486
ObjectId(5ffe1282e76abe1e679493e4),full_sample,44,3BQU611VFQ9CGKBI250WMR887AS99S,stop,6443.315000040457,tangram,isolated,tangram-142.jpg,NA,survey-text,10,252550
ObjectId(5ffe128de76abe1e679493e7),full_sample,44,3BQU611VFQ9CGKBI250WMR887AS99S,throw,10034.410000080243,tangram,isolated,A2.jpg,NA,survey-text,11,263098
ObjectId(5ffe1291e76abe1e679493e8),full_sample,121,3X65QVEQI1C9FKJU3MDDTQ0BDPCLCI,dog,5216.619999999239,tangram,isolated,tangram-179.jpg,NA,survey-text,2,18829
ObjectId(5ffe1291e76abe1e679493e9),full_sample,44,3BQU611VFQ9CGKBI250WMR887AS99S,stand,3791.6399999521673,tangram,isolated,Y1.jpg,NA,survey-text,12,267406
ObjectId(5ffe1294e76abe1e679493ea),full_sample,121,3X65QVEQI1C9FKJU3MDDTQ0BDPCLCI,man,3048.6049999963143,tangram,isolated,tangram-6.jpg,NA,survey-text,3,22386
ObjectId(5ffe1298e76abe1e679493eb),full_sample,121,3X65QVEQI1C9FKJU3MDDTQ0BDPCLCI,cat,2854.1800000020885,tangram,isolated,C1.jpg,NA,survey-text,4,25755
ObjectId(5ffe1298e76abe1e679493ec),full_sample,44,3BQU611VFQ9CGKBI250WMR887AS99S,sleep,6546.730000060052,tangram,isolated,tangram-183.jpg,NA,survey-text,13,274476
ObjectId(5ffe129ae76abe1e679493ed),full_sample,121,3X65QVEQI1C9FKJU3MDDTQ0BDPCLCI,woman,1488.2399999987683,tangram,isolated,tangram-126.jpg,NA,survey-text,5,27760
ObjectId(5ffe129de76abe1e679493ee),full_sample,121,3X65QVEQI1C9FKJU3MDDTQ0BDPCLCI,claw,2864.85000000539,tangram,isolated,tangram-8.jpg,NA,survey-text,6,31143
ObjectId(5ffe12a1e76abe1e679493ef),full_sample,121,3X65QVEQI1C9FKJU3MDDTQ0BDPCLCI,clamp,3455.6999999986147,tangram,isolated,tangram-155.jpg,NA,survey-text,7,35111
ObjectId(5ffe12a3e76abe1e679493f0),full_sample,44,3BQU611VFQ9CGKBI250WMR887AS99S,run,10478.370000026189,tangram,isolated,A1.jpg,NA,survey-text,14,285470
ObjectId(5ffe12a4e76abe1e679493f1),full_sample,121,3X65QVEQI1C9FKJU3MDDTQ0BDPCLCI,dancer,2646.3700000022072,tangram,isolated,tangram-64.jpg,NA,survey-text,8,38274
ObjectId(5ffe12a7e76abe1e679493f2),full_sample,121,3X65QVEQI1C9FKJU3MDDTQ0BDPCLCI,waiter,2111.4900000029593,tangram,isolated,I1.jpg,NA,survey-text,9,40900
ObjectId(5ffe12a8e76abe1e679493f3),full_sample,44,3BQU611VFQ9CGKBI250WMR887AS99S,jump,4355.940000037663,tangram,isolated,tangram-111.jpg,NA,survey-text,15,290347
ObjectId(5ffe12ade76abe1e679493f4),full_sample,121,3X65QVEQI1C9FKJU3MDDTQ0BDPCLCI,bird,5466.240000001562,tangram,isolated,tangram-140.jpg,NA,survey-text,10,46871
ObjectId(5ffe12aee76abe1e679493f5),full_sample,44,3BQU611VFQ9CGKBI250WMR887AS99S,fly,4959.955000085756,tangram,isolated,tangram-119.jpg,NA,survey-text,16,295818
ObjectId(5ffe12b0e76abe1e679493f6),full_sample,121,3X65QVEQI1C9FKJU3MDDTQ0BDPCLCI,witch,2497.0250000042142,tangram,isolated,tangram-32.jpg,NA,survey-text,11,49879
ObjectId(5ffe12b3e76abe1e679493f7),full_sample,121,3X65QVEQI1C9FKJU3MDDTQ0BDPCLCI,child,2436.020000001008,tangram,isolated,L1.jpg,NA,survey-text,12,52823
ObjectId(5ffe12b8e76abe1e679493f8),full_sample,44,3BQU611VFQ9CGKBI250WMR887AS99S,strawberry,10218.379999976605,catch,NA,catch_trial.jpg,NA,survey-text,17,306546
ObjectId(5ffe12bee76abe1e679493f9),full_sample,44,3BQU611VFQ9CGKBI250WMR887AS99S,dance,5394.749999977648,tangram,isolated,tangram-53.jpg,NA,survey-text,18,312455
ObjectId(5ffe12c2e76abe1e679493fa),full_sample,44,3BQU611VFQ9CGKBI250WMR887AS99S,run,3602.1399999735877,tangram,isolated,tangram-99.jpg,NA,survey-text,19,316570
ObjectId(5ffe12c7e76abe1e679493fb),full_sample,44,3BQU611VFQ9CGKBI250WMR887AS99S,down,4061.9949999963865,tangram,isolated,tangram-178.jpg,NA,survey-text,20,321147
ObjectId(5ffe12cee76abe1e679493fc),full_sample,44,3BQU611VFQ9CGKBI250WMR887AS99S,neel down,6726.13999992609,tangram,isolated,C1.jpg,NA,survey-text,21,328384
ObjectId(5ffe12dbe76abe1e679493fd),full_sample,44,3BQU611VFQ9CGKBI250WMR887AS99S,stand,11768.079999950714,tangram,isolated,tangram-64.jpg,NA,survey-text,22,340663
ObjectId(5ffe12dce76abe1e679493fe),full_sample,121,3X65QVEQI1C9FKJU3MDDTQ0BDPCLCI,jesus,40888.324999999895,tangram,isolated,tangram-103.jpg,NA,survey-text,13,94215
ObjectId(5ffe12dee76abe1e679493ff),full_sample,44,3BQU611VFQ9CGKBI250WMR887AS99S,sad,2998.4800000675023,tangram,isolated,B1.jpg,NA,survey-text,23,344269
ObjectId(5ffe12e2e76abe1e67949400),full_sample,121,3X65QVEQI1C9FKJU3MDDTQ0BDPCLCI,clergy,5377.999999996973,tangram,isolated,tangram-87.jpg,NA,survey-text,14,100097
ObjectId(5ffe12e3e76abe1e67949401),full_sample,44,3BQU611VFQ9CGKBI250WMR887AS99S,study,3862.9750000545755,tangram,isolated,T1.jpg,NA,survey-text,24,348741
ObjectId(5ffe12e6e76abe1e67949402),full_sample,121,3X65QVEQI1C9FKJU3MDDTQ0BDPCLCI,skier,3593.1700000001,tangram,isolated,tangram-178.jpg,NA,survey-text,15,104204
ObjectId(5ffe12ece76abe1e67949403),full_sample,44,3BQU611VFQ9CGKBI250WMR887AS99S,down,9014.369999989867,tangram,isolated,tangram-9.jpg,NA,survey-text,25,358356
ObjectId(5ffe12ede76abe1e67949404),full_sample,121,3X65QVEQI1C9FKJU3MDDTQ0BDPCLCI,player,6514.329999998154,tangram,isolated,tangram-187.jpg,NA,survey-text,16,111234
ObjectId(5ffe12f3e76abe1e67949405),full_sample,121,3X65QVEQI1C9FKJU3MDDTQ0BDPCLCI,strawberry,5402.529999999388,catch,NA,catch_trial.jpg,NA,survey-text,17,117156
ObjectId(5ffe12f4e76abe1e67949406),full_sample,44,3BQU611VFQ9CGKBI250WMR887AS99S,roll,7099.780000047758,tangram,isolated,tangram-90.jpg,NA,survey-text,26,365966
ObjectId(5ffe12f9e76abe1e67949407),full_sample,121,3X65QVEQI1C9FKJU3MDDTQ0BDPCLCI,runner,6051.3799999971525,tangram,isolated,tangram-146.jpg,NA,survey-text,18,123722
ObjectId(5ffe12fbe76abe1e67949408),full_sample,44,3BQU611VFQ9CGKBI250WMR887AS99S,hiphop,6385.355000034906,tangram,isolated,tangram-4.jpg,NA,survey-text,27,372862
ObjectId(5ffe12ffe76abe1e67949409),full_sample,121,3X65QVEQI1C9FKJU3MDDTQ0BDPCLCI,robot,5483.000000000175,tangram,isolated,tangram-192.jpg,NA,survey-text,19,129717
ObjectId(5ffe1301e76abe1e6794940a),full_sample,44,3BQU611VFQ9CGKBI250WMR887AS99S,run,5855.710000032559,tangram,isolated,tangram-67.jpg,NA,survey-text,28,379235
ObjectId(5ffe1305e76abe1e6794940b),full_sample,44,3BQU611VFQ9CGKBI250WMR887AS99S,dance,3851.3500000117347,tangram,isolated,tangram-192.jpg,NA,survey-text,29,383608
ObjectId(5ffe1307e76abe1e6794940c),full_sample,121,3X65QVEQI1C9FKJU3MDDTQ0BDPCLCI,statue,6862.2899999973015,tangram,isolated,tangram-142.jpg,NA,survey-text,20,137092
ObjectId(5ffe1309e76abe1e6794940d),full_sample,44,3BQU611VFQ9CGKBI250WMR887AS99S,run,3355.390000040643,tangram,isolated,L1.jpg,NA,survey-text,30,387477
ObjectId(5ffe130be76abe1e6794940e),full_sample,121,3X65QVEQI1C9FKJU3MDDTQ0BDPCLCI,telescope,3687.4800000005052,tangram,isolated,M1.jpg,NA,survey-text,21,141292
ObjectId(5ffe130ee76abe1e6794940f),full_sample,121,3X65QVEQI1C9FKJU3MDDTQ0BDPCLCI,reader,2677.1850000004633,tangram,isolated,tangram-44.jpg,NA,survey-text,22,144484
ObjectId(5ffe1310e76abe1e67949410),full_sample,44,3BQU611VFQ9CGKBI250WMR887AS99S,yoga,6278.249999973923,tangram,isolated,G1.jpg,NA,survey-text,31,394267
ObjectId(5ffe1314e76abe1e67949411),full_sample,121,3X65QVEQI1C9FKJU3MDDTQ0BDPCLCI,boxer,5247.035000000324,tangram,isolated,tangram-53.jpg,NA,survey-text,23,150236
ObjectId(5ffe1316e76abe1e67949412),full_sample,44,3BQU611VFQ9CGKBI250WMR887AS99S,stand,5219.279999961145,tangram,isolated,P1.jpg,NA,survey-text,32,400003
ObjectId(5ffe131ee76abe1e67949413),full_sample,121,3X65QVEQI1C9FKJU3MDDTQ0BDPCLCI,sledder,9356.034999997064,tangram,isolated,tangram-99.jpg,NA,survey-text,24,160100
ObjectId(5ffe1321e76abe1e67949414),full_sample,121,3X65QVEQI1C9FKJU3MDDTQ0BDPCLCI,penguin,3012.559999995574,tangram,isolated,D1.jpg,NA,survey-text,25,163617
ObjectId(5ffe1328e76abe1e67949415),full_sample,121,3X65QVEQI1C9FKJU3MDDTQ0BDPCLCI,clamp,6613.729999997304,tangram,isolated,tangram-96.jpg,NA,survey-text,26,170742
ObjectId(5ffe1330e76abe1e67949416),full_sample,121,3X65QVEQI1C9FKJU3MDDTQ0BDPCLCI,murder,6787.044999997306,tangram,isolated,A2.jpg,NA,survey-text,27,178043
ObjectId(5ffe1333e76abe1e67949417),full_sample,121,3X65QVEQI1C9FKJU3MDDTQ0BDPCLCI,runner,2322.905000000901,tangram,isolated,tangram-119.jpg,NA,survey-text,28,180885
ObjectId(5ffe1338e76abe1e67949418),full_sample,121,3X65QVEQI1C9FKJU3MDDTQ0BDPCLCI,caroller,4414.434999998775,tangram,isolated,T1.jpg,NA,survey-text,29,185816
ObjectId(5ffe133ee76abe1e67949419),full_sample,121,3X65QVEQI1C9FKJU3MDDTQ0BDPCLCI,playwrite,6407.984999998007,tangram,isolated,tangram-90.jpg,NA,survey-text,30,192737
ObjectId(5ffe1343e76abe1e6794941a),full_sample,121,3X65QVEQI1C9FKJU3MDDTQ0BDPCLCI,penguin,4096.88499999902,tangram,isolated,tangram-106.jpg,NA,survey-text,31,197344
ObjectId(5ffe1347e76abe1e6794941b),full_sample,121,3X65QVEQI1C9FKJU3MDDTQ0BDPCLCI,murderer,3386.0750000021653,tangram,isolated,tangram-150.jpg,NA,survey-text,32,201239
ObjectId(5ffe13a5e76abe1e6794941e),full_sample,7,388U7OUMF8Q0OQJRWQHPK179ATC0R4,man,13754.434999995283,tangram,isolated,C2.jpg,NA,survey-text,2,79875
ObjectId(5ffe13aee76abe1e6794941f),full_sample,7,388U7OUMF8Q0OQJRWQHPK179ATC0R4,running,8791.379999995115,tangram,isolated,P1.jpg,NA,survey-text,3,89170
ObjectId(5ffe13bee76abe1e67949420),full_sample,7,388U7OUMF8Q0OQJRWQHPK179ATC0R4,excitement,15904.964999994263,tangram,isolated,tangram-30.jpg,NA,survey-text,4,105578
ObjectId(5ffe13c7e76abe1e67949421),full_sample,7,388U7OUMF8Q0OQJRWQHPK179ATC0R4,throwing,7704.555000003893,tangram,isolated,A2.jpg,NA,survey-text,5,113786
ObjectId(5ffe13d5e76abe1e67949422),full_sample,7,388U7OUMF8Q0OQJRWQHPK179ATC0R4,hop,13559.944999986328,tangram,isolated,tangram-53.jpg,NA,survey-text,6,127850
ObjectId(5ffe13dbe76abe1e67949423),full_sample,7,388U7OUMF8Q0OQJRWQHPK179ATC0R4,run,6040.270000012242,tangram,isolated,O1.jpg,NA,survey-text,7,134394
ObjectId(5ffe13e4e76abe1e67949424),full_sample,7,388U7OUMF8Q0OQJRWQHPK179ATC0R4,waiter,8040.435000002617,tangram,isolated,I1.jpg,NA,survey-text,8,142939
ObjectId(5ffe13ebe76abe1e67949426),full_sample,7,388U7OUMF8Q0OQJRWQHPK179ATC0R4,kneel,6894.864999994752,tangram,isolated,tangram-87.jpg,NA,survey-text,9,150338
ObjectId(5ffe13f0e76abe1e67949428),full_sample,7,388U7OUMF8Q0OQJRWQHPK179ATC0R4,catch,4816.295000011451,tangram,isolated,W1.jpg,NA,survey-text,10,155658
ObjectId(5ffe13f5e76abe1e67949429),full_sample,2,3DPNQGW4LM4O1V38N31TL96QVIE64S,dancer,5534,tangram,isolated,W1.jpg,NA,survey-text,2,57110
ObjectId(5ffe13f6e76abe1e6794942a),full_sample,7,388U7OUMF8Q0OQJRWQHPK179ATC0R4,sprint,5418.520000006538,tangram,isolated,tangram-67.jpg,NA,survey-text,11,161579
ObjectId(5ffe1405e76abe1e6794942b),full_sample,2,3DPNQGW4LM4O1V38N31TL96QVIE64S,runner,15183,tangram,isolated,tangram-99.jpg,NA,survey-text,3,72811
ObjectId(5ffe140de76abe1e6794942c),full_sample,7,388U7OUMF8Q0OQJRWQHPK179ATC0R4,inverted,22240.420000001905,tangram,isolated,tangram-155.jpg,NA,survey-text,12,184322
ObjectId(5ffe1411e76abe1e6794942d),full_sample,2,3DPNQGW4LM4O1V38N31TL96QVIE64S,woman,11863,tangram,isolated,tangram-146.jpg,NA,survey-text,4,85180
ObjectId(5ffe141be76abe1e6794942e),full_sample,7,388U7OUMF8Q0OQJRWQHPK179ATC0R4,jump,13408.80499999912,tangram,isolated,tangram-192.jpg,NA,survey-text,13,198233
ObjectId(5ffe1421e76abe1e6794942f),full_sample,2,3DPNQGW4LM4O1V38N31TL96QVIE64S,thinker,15292,tangram,isolated,tangram-142.jpg,NA,survey-text,5,100977
ObjectId(5ffe1423e76abe1e67949430),full_sample,7,388U7OUMF8Q0OQJRWQHPK179ATC0R4,reaching,7161.804999996093,tangram,isolated,F1.jpg,NA,survey-text,14,205897
ObjectId(5ffe142be76abe1e67949431),full_sample,2,3DPNQGW4LM4O1V38N31TL96QVIE64S,farmer,9960,tangram,isolated,tangram-71.jpg,NA,survey-text,6,111446
ObjectId(5ffe1430e76abe1e67949432),full_sample,7,388U7OUMF8Q0OQJRWQHPK179ATC0R4,dance,12969.450000004144,tangram,isolated,tangram-99.jpg,NA,survey-text,15,219369
ObjectId(5ffe1434e76abe1e67949433),full_sample,2,3DPNQGW4LM4O1V38N31TL96QVIE64S,prayer,8055,tangram,isolated,tangram-87.jpg,NA,survey-text,7,120006
ObjectId(5ffe143ae76abe1e67949434),full_sample,2,3DPNQGW4LM4O1V38N31TL96QVIE64S,sprinter,5268,tangram,isolated,tangram-55.jpg,NA,survey-text,8,125778
ObjectId(5ffe143ae76abe1e67949435),full_sample,7,388U7OUMF8Q0OQJRWQHPK179ATC0R4,monster,9359.555000002729,tangram,isolated,tangram-171.jpg,NA,survey-text,16,229232
ObjectId(5ffe1441e76abe1e67949436),full_sample,2,3DPNQGW4LM4O1V38N31TL96QVIE64S,walker,6596,tangram,isolated,tangram-44.jpg,NA,survey-text,9,132881
ObjectId(5ffe1448e76abe1e67949437),full_sample,2,3DPNQGW4LM4O1V38N31TL96QVIE64S,child,6983,tangram,isolated,V1.jpg,NA,survey-text,10,140377
ObjectId(5ffe144ae76abe1e67949438),full_sample,7,388U7OUMF8Q0OQJRWQHPK179ATC0R4,strawberry,15139.519999996992,catch,NA,catch_trial.jpg,NA,survey-text,17,244874
ObjectId(5ffe144ee76abe1e67949439),full_sample,2,3DPNQGW4LM4O1V38N31TL96QVIE64S,dog,5644,tangram,isolated,L1.jpg,NA,survey-text,11,146522
ObjectId(5ffe1455e76abe1e6794943b),full_sample,7,388U7OUMF8Q0OQJRWQHPK179ATC0R4,falling,10392.86500000162,tangram,isolated,tangram-111.jpg,NA,survey-text,18,255770
ObjectId(5ffe1457e76abe1e6794943c),full_sample,2,3DPNQGW4LM4O1V38N31TL96QVIE64S,judge,8369,tangram,isolated,tangram-6.jpg,NA,survey-text,12,155396
ObjectId(5ffe1461e76abe1e6794943e),full_sample,75,39L1G8WVWRG8CDJ7HJKTG8N397Z131,comical,8339.489999692887,tangram,isolated,tangram-187.jpg,NA,survey-text,2,38312
ObjectId(5ffe1461e76abe1e6794943f),full_sample,2,3DPNQGW4LM4O1V38N31TL96QVIE64S,walker,9431,tangram,isolated,tangram-119.jpg,NA,survey-text,13,165336
ObjectId(5ffe1462e76abe1e67949440),full_sample,7,388U7OUMF8Q0OQJRWQHPK179ATC0R4,laughing,13072.450000006938,tangram,isolated,D1.jpg,NA,survey-text,19,269346
ObjectId(5ffe146be76abe1e67949441),full_sample,75,39L1G8WVWRG8CDJ7HJKTG8N397Z131,sitting,10031.754999887198,tangram,isolated,tangram-143.jpg,NA,survey-text,3,48849
ObjectId(5ffe146fe76abe1e67949442),full_sample,2,3DPNQGW4LM4O1V38N31TL96QVIE64S,kowtow,12984,tangram,isolated,C1.jpg,NA,survey-text,14,178823
ObjectId(5ffe1471e76abe1e67949443),full_sample,75,39L1G8WVWRG8CDJ7HJKTG8N397Z131,prayer,5554.150000214577,tangram,isolated,tangram-155.jpg,NA,survey-text,4,54919
ObjectId(5ffe1478e76abe1e67949444),full_sample,75,39L1G8WVWRG8CDJ7HJKTG8N397Z131,excited,6162.359999958426,tangram,isolated,V1.jpg,NA,survey-text,5,61587
ObjectId(5ffe147ae76abe1e67949445),full_sample,2,3DPNQGW4LM4O1V38N31TL96QVIE64S,breakdancer,11286,tangram,isolated,tangram-192.jpg,NA,survey-text,15,190616
ObjectId(5ffe147ee76abe1e67949446),full_sample,75,39L1G8WVWRG8CDJ7HJKTG8N397Z131,studious,5202.399999834597,tangram,isolated,J1.jpg,NA,survey-text,6,67294
ObjectId(5ffe1481e76abe1e67949447),full_sample,7,388U7OUMF8Q0OQJRWQHPK179ATC0R4,sport,29984.339999995427,tangram,isolated,tangram-32.jpg,NA,survey-text,20,299834
ObjectId(5ffe1482e76abe1e67949448),full_sample,75,39L1G8WVWRG8CDJ7HJKTG8N397Z131,running,4057.73500027135,tangram,isolated,tangram-55.jpg,NA,survey-text,7,71863
ObjectId(5ffe1483e76abe1e67949449),full_sample,2,3DPNQGW4LM4O1V38N31TL96QVIE64S,elder,7915,tangram,isolated,tangram-74.jpg,NA,survey-text,16,199038
ObjectId(5ffe1489e76abe1e6794944a),full_sample,7,388U7OUMF8Q0OQJRWQHPK179ATC0R4,bow,7791.980000009062,tangram,isolated,K1.jpg,NA,survey-text,21,308129
ObjectId(5ffe148ae76abe1e6794944b),full_sample,75,39L1G8WVWRG8CDJ7HJKTG8N397Z131,kicking,7021.114999894053,tangram,isolated,tangram-48.jpg,NA,survey-text,8,79391
ObjectId(5ffe148de76abe1e6794944c),full_sample,2,3DPNQGW4LM4O1V38N31TL96QVIE64S,strawberry,9451,catch,NA,catch_trial.jpg,NA,survey-text,17,209005
ObjectId(5ffe1490e76abe1e6794944d),full_sample,7,388U7OUMF8Q0OQJRWQHPK179ATC0R4,teacher,6547.189999997499,tangram,isolated,tangram-71.jpg,NA,survey-text,22,315179
ObjectId(5ffe1490e76abe1e6794944e),full_sample,75,39L1G8WVWRG8CDJ7HJKTG8N397Z131,religious,6066.64999993518,tangram,isolated,tangram-6.jpg,NA,survey-text,9,85961
ObjectId(5ffe1499e76abe1e6794944f),full_sample,7,388U7OUMF8Q0OQJRWQHPK179ATC0R4,sadness,8445.980000004056,tangram,isolated,B1.jpg,NA,survey-text,23,324129
ObjectId(5ffe1499e76abe1e67949450),full_sample,2,3DPNQGW4LM4O1V38N31TL96QVIE64S,zombie,12150,tangram,isolated,T1.jpg,NA,survey-text,18,221658
ObjectId(5ffe149be76abe1e67949451),full_sample,75,39L1G8WVWRG8CDJ7HJKTG8N397Z131,jaws,9932.310000061989,tangram,isolated,tangram-179.jpg,NA,survey-text,10,96399
ObjectId(5ffe149fe76abe1e67949452),full_sample,7,388U7OUMF8Q0OQJRWQHPK179ATC0R4,obese,5273.215000008349,tangram,isolated,tangram-142.jpg,NA,survey-text,24,329906
ObjectId(5ffe14a1e76abe1e67949453),full_sample,2,3DPNQGW4LM4O1V38N31TL96QVIE64S,runner,7298,tangram,isolated,A1.jpg,NA,survey-text,19,229465
ObjectId(5ffe14a5e76abe1e67949454),full_sample,2,3DPNQGW4LM4O1V38N31TL96QVIE64S,dancer,3616,tangram,isolated,tangram-64.jpg,NA,survey-text,20,233582
ObjectId(5ffe14abe76abe1e67949455),full_sample,2,3DPNQGW4LM4O1V38N31TL96QVIE64S,kickboxer,5498,tangram,isolated,tangram-48.jpg,NA,survey-text,21,239588
ObjectId(5ffe14ace76abe1e67949456),full_sample,75,39L1G8WVWRG8CDJ7HJKTG8N397Z131,happy,16791.9600000605,tangram,isolated,tangram-119.jpg,NA,survey-text,11,113697
ObjectId(5ffe14ade76abe1e67949457),full_sample,7,388U7OUMF8Q0OQJRWQHPK179ATC0R4,rushing,14023.105000000214,tangram,isolated,N1.jpg,NA,survey-text,25,344433
ObjectId(5ffe14b2e76abe1e67949458),full_sample,75,39L1G8WVWRG8CDJ7HJKTG8N397Z131,focused,5721.549999900162,tangram,isolated,tangram-108.jpg,NA,survey-text,12,119923
ObjectId(5ffe14b3e76abe1e67949459),full_sample,7,388U7OUMF8Q0OQJRWQHPK179ATC0R4,seal,5728.340000001481,tangram,isolated,tangram-64.jpg,NA,survey-text,26,350666
ObjectId(5ffe14bbe76abe1e6794945a),full_sample,75,39L1G8WVWRG8CDJ7HJKTG8N397Z131,relaxed,8134.025000035763,tangram,isolated,tangram-192.jpg,NA,survey-text,13,128563
ObjectId(5ffe14bde76abe1e6794945b),full_sample,2,3DPNQGW4LM4O1V38N31TL96QVIE64S,ostrich,16793,tangram,isolated,tangram-140.jpg,NA,survey-text,22,256884
ObjectId(5ffe14c1e76abe1e6794945c),full_sample,7,388U7OUMF8Q0OQJRWQHPK179ATC0R4,pointer,13072.60500000848,tangram,isolated,tangram-96.jpg,NA,survey-text,27,364241
ObjectId(5ffe14c3e76abe1e6794945d),full_sample,75,39L1G8WVWRG8CDJ7HJKTG8N397Z131,leisurely,7728.300000075251,tangram,isolated,tangram-164.jpg,NA,survey-text,14,136797
ObjectId(5ffe14c4e76abe1e6794945e),full_sample,2,3DPNQGW4LM4O1V38N31TL96QVIE64S,monk,6622,tangram,isolated,G1.jpg,NA,survey-text,23,264010
ObjectId(5ffe14cae76abe1e6794945f),full_sample,75,39L1G8WVWRG8CDJ7HJKTG8N397Z131,prudent,6836.624999996275,tangram,isolated,tangram-126.jpg,NA,survey-text,15,144139
ObjectId(5ffe14d2e76abe1e67949460),full_sample,7,388U7OUMF8Q0OQJRWQHPK179ATC0R4,directional,16439.76000000839,tangram,isolated,tangram-108.jpg,NA,survey-text,28,381186
ObjectId(5ffe14d8e76abe1e67949461),full_sample,75,39L1G8WVWRG8CDJ7HJKTG8N397Z131,dominating,13518.050000071526,tangram,isolated,tangram-171.jpg,NA,survey-text,16,158163
ObjectId(5ffe14d9e76abe1e67949462),full_sample,2,3DPNQGW4LM4O1V38N31TL96QVIE64S,breakdancer,21153,tangram,isolated,tangram-183.jpg,NA,survey-text,24,285672
ObjectId(5ffe14e0e76abe1e67949463),full_sample,75,39L1G8WVWRG8CDJ7HJKTG8N397Z131,strawberry,7294.754999689758,catch,NA,catch_trial.jpg,NA,survey-text,17,165964
ObjectId(5ffe14e2e76abe1e67949464),full_sample,2,3DPNQGW4LM4O1V38N31TL96QVIE64S,child,7724,tangram,isolated,tangram-187.jpg,NA,survey-text,25,293902
ObjectId(5ffe14e2e76abe1e67949465),full_sample,7,388U7OUMF8Q0OQJRWQHPK179ATC0R4,run,15190.715000004275,tangram,isolated,R1.jpg,NA,survey-text,29,396890
ObjectId(5ffe14e6e76abe1e67949466),full_sample,75,39L1G8WVWRG8CDJ7HJKTG8N397Z131,serving,5535.199999809265,tangram,isolated,I1.jpg,NA,survey-text,18,172015
ObjectId(5ffe14e7e76abe1e67949467),full_sample,7,388U7OUMF8Q0OQJRWQHPK179ATC0R4,student,4465.184999993653,tangram,isolated,H1.jpg,NA,survey-text,30,401858
ObjectId(5ffe14e7e76abe1e67949468),full_sample,2,3DPNQGW4LM4O1V38N31TL96QVIE64S,child,5235,tangram,isolated,P1.jpg,NA,survey-text,26,299644
ObjectId(5ffe14ece76abe1e67949469),full_sample,2,3DPNQGW4LM4O1V38N31TL96QVIE64S,dog,4037,tangram,isolated,tangram-179.jpg,NA,survey-text,27,304183
ObjectId(5ffe14ece76abe1e6794946a),full_sample,7,388U7OUMF8Q0OQJRWQHPK179ATC0R4,sit,4788.840000008349,tangram,isolated,G1.jpg,NA,survey-text,31,407242
ObjectId(5ffe14ede76abe1e6794946b),full_sample,75,39L1G8WVWRG8CDJ7HJKTG8N397Z131,resting,5739.109999965876,tangram,isolated,D1.jpg,NA,survey-text,19,178259
ObjectId(5ffe14f1e76abe1e6794946c),full_sample,2,3DPNQGW4LM4O1V38N31TL96QVIE64S,zombie,4147,tangram,isolated,tangram-108.jpg,NA,survey-text,28,308834
ObjectId(5ffe14f3e76abe1e6794946d),full_sample,75,39L1G8WVWRG8CDJ7HJKTG8N397Z131,jubilant,5658.375000115484,tangram,isolated,tangram-111.jpg,NA,survey-text,20,184423
ObjectId(5ffe14f7e76abe1e6794946e),full_sample,2,3DPNQGW4LM4O1V38N31TL96QVIE64S,diva,6338,tangram,isolated,tangram-103.jpg,NA,survey-text,29,315678
ObjectId(5ffe14f8e76abe1e6794946f),full_sample,75,39L1G8WVWRG8CDJ7HJKTG8N397Z131,steady,5225.529999937862,tangram,isolated,tangram-44.jpg,NA,survey-text,21,190164
ObjectId(5ffe1501e76abe1e67949470),full_sample,7,388U7OUMF8Q0OQJRWQHPK179ATC0R4,table,20360.100000005332,tangram,isolated,tangram-9.jpg,NA,survey-text,32,428290
ObjectId(5ffe1504e76abe1e67949471),full_sample,2,3DPNQGW4LM4O1V38N31TL96QVIE64S,juror,12350,tangram,isolated,tangram-120.jpg,NA,survey-text,30,328538
ObjectId(5ffe1519e76abe1e67949472),full_sample,2,3DPNQGW4LM4O1V38N31TL96QVIE64S,dog,20383,tangram,isolated,tangram-4.jpg,NA,survey-text,31,349426
ObjectId(5ffe151be76abe1e67949473),full_sample,75,39L1G8WVWRG8CDJ7HJKTG8N397Z131,helpful,34147.16499997303,tangram,isolated,K1.jpg,NA,survey-text,22,224817
ObjectId(5ffe1521e76abe1e67949474),full_sample,75,39L1G8WVWRG8CDJ7HJKTG8N397Z131,regal,5659.924999810755,tangram,isolated,M1.jpg,NA,survey-text,23,230980
ObjectId(5ffe1527e76abe1e67949475),full_sample,2,3DPNQGW4LM4O1V38N31TL96QVIE64S,athlete,13238,tangram,isolated,tangram-8.jpg,NA,survey-text,32,363168
ObjectId(5ffe1527e76abe1e67949476),full_sample,75,39L1G8WVWRG8CDJ7HJKTG8N397Z131,poised,5414.520000107586,tangram,isolated,G1.jpg,NA,survey-text,24,236918
ObjectId(5ffe152ee76abe1e67949477),full_sample,75,39L1G8WVWRG8CDJ7HJKTG8N397Z131,solid,6228.945000097156,tangram,isolated,tangram-120.jpg,NA,survey-text,25,243652
ObjectId(5ffe1534e76abe1e67949478),full_sample,75,39L1G8WVWRG8CDJ7HJKTG8N397Z131,old,5825.484999921173,tangram,isolated,tangram-96.jpg,NA,survey-text,26,249983
ObjectId(5ffe153be76abe1e67949479),full_sample,75,39L1G8WVWRG8CDJ7HJKTG8N397Z131,preening,6577.749999705702,tangram,isolated,tangram-64.jpg,NA,survey-text,27,257079
ObjectId(5ffe1540e76abe1e6794947a),full_sample,75,39L1G8WVWRG8CDJ7HJKTG8N397Z131,rushing,4334.1649998910725,tangram,isolated,N1.jpg,NA,survey-text,28,261929
ObjectId(5ffe1547e76abe1e6794947b),full_sample,75,39L1G8WVWRG8CDJ7HJKTG8N397Z131,candle,6099.119999911636,tangram,isolated,tangram-142.jpg,NA,survey-text,29,268535
ObjectId(5ffe154ee76abe1e6794947c),full_sample,75,39L1G8WVWRG8CDJ7HJKTG8N397Z131,giddy,7206.609999760985,tangram,isolated,tangram-99.jpg,NA,survey-text,30,276247
ObjectId(5ffe155be76abe1e6794947d),full_sample,75,39L1G8WVWRG8CDJ7HJKTG8N397Z131,thoughtful,12340.055000036955,tangram,isolated,L1.jpg,NA,survey-text,31,289097
ObjectId(5ffe1561e76abe1e6794947e),full_sample,75,39L1G8WVWRG8CDJ7HJKTG8N397Z131,celebratory,5200.964999850839,tangram,isolated,tangram-103.jpg,NA,survey-text,32,294805
ObjectId(5ffe1673e76abe1e67949481),full_sample,116,35DR22AR5E9G2E40OC50BHR4EL93XO,walk,18209.999999962747,tangram,isolated,P1.jpg,NA,survey-text,2,140233
ObjectId(5ffe1685e76abe1e67949482),full_sample,116,35DR22AR5E9G2E40OC50BHR4EL93XO,bird,18410.00000014901,tangram,isolated,tangram-192.jpg,NA,survey-text,3,159150
ObjectId(5ffe168be76abe1e67949483),full_sample,116,35DR22AR5E9G2E40OC50BHR4EL93XO,run,5013.999999966472,tangram,isolated,N1.jpg,NA,survey-text,4,164678
ObjectId(5ffe1692e76abe1e67949484),full_sample,116,35DR22AR5E9G2E40OC50BHR4EL93XO,walk,6351.000000024214,tangram,isolated,tangram-119.jpg,NA,survey-text,5,171590
ObjectId(5ffe169de76abe1e67949485),full_sample,116,35DR22AR5E9G2E40OC50BHR4EL93XO,jump,10983.00000000745,tangram,isolated,tangram-8.jpg,NA,survey-text,6,183099
ObjectId(5ffe16b3e76abe1e67949486),full_sample,116,35DR22AR5E9G2E40OC50BHR4EL93XO,stand,21233.999999938533,tangram,isolated,K1.jpg,NA,survey-text,7,204839
ObjectId(5ffe16c4e76abe1e67949487),full_sample,116,35DR22AR5E9G2E40OC50BHR4EL93XO,down walk,16258.9999998454,tangram,isolated,tangram-114.jpg,NA,survey-text,8,221599
ObjectId(5ffe1704e76abe1e67949488),full_sample,116,35DR22AR5E9G2E40OC50BHR4EL93XO,staning,63519.000000087544,tangram,isolated,tangram-103.jpg,NA,survey-text,9,285625
ObjectId(5ffe170fe76abe1e67949489),full_sample,116,35DR22AR5E9G2E40OC50BHR4EL93XO,sit,10388.999999966472,tangram,isolated,tangram-179.jpg,NA,survey-text,10,296517
ObjectId(5ffe1716e76abe1e6794948a),full_sample,116,35DR22AR5E9G2E40OC50BHR4EL93XO,stand,6739.000000059605,tangram,isolated,tangram-120.jpg,NA,survey-text,11,303781
ObjectId(5ffe1728e76abe1e6794948b),full_sample,116,35DR22AR5E9G2E40OC50BHR4EL93XO,down stand,16961.00000012666,tangram,isolated,tangram-140.jpg,NA,survey-text,12,321244
ObjectId(5ffe172de76abe1e6794948c),full_sample,116,35DR22AR5E9G2E40OC50BHR4EL93XO,walk,4515.999999828637,tangram,isolated,tangram-99.jpg,NA,survey-text,13,326268
ObjectId(5ffe1734e76abe1e6794948d),full_sample,116,35DR22AR5E9G2E40OC50BHR4EL93XO,walk,7300.000000046566,tangram,isolated,V1.jpg,NA,survey-text,14,334081
ObjectId(5ffe1740e76abe1e6794948e),full_sample,116,35DR22AR5E9G2E40OC50BHR4EL93XO,stand,10722.000000067055,tangram,isolated,I1.jpg,NA,survey-text,15,345303
ObjectId(5ffe174ee76abe1e6794948f),full_sample,116,35DR22AR5E9G2E40OC50BHR4EL93XO,sit in yoga,14003.000000026077,tangram,isolated,tangram-87.jpg,NA,survey-text,16,359859
ObjectId(5ffe1760e76abe1e67949492),full_sample,108,373ERPL3YPX14ZGIUS5Z4C9E74CRTA,runner,4578,tangram,isolated,tangram-32.jpg,NA,survey-text,2,26674
ObjectId(5ffe1768e76abe1e67949493),full_sample,108,373ERPL3YPX14ZGIUS5Z4C9E74CRTA,kneeling,7434,tangram,isolated,C1.jpg,NA,survey-text,3,34614
ObjectId(5ffe176be76abe1e67949494),full_sample,116,35DR22AR5E9G2E40OC50BHR4EL93XO,strawberry,27811.999999918044,catch,NA,catch_trial.jpg,NA,survey-text,17,388179
ObjectId(5ffe176de76abe1e67949495),full_sample,108,373ERPL3YPX14ZGIUS5Z4C9E74CRTA,tripped,4340,tangram,isolated,tangram-183.jpg,NA,survey-text,4,39456
ObjectId(5ffe1774e76abe1e67949496),full_sample,108,373ERPL3YPX14ZGIUS5Z4C9E74CRTA,diving,5950,tangram,isolated,tangram-8.jpg,NA,survey-text,5,45910
ObjectId(5ffe1777e76abe1e67949497),full_sample,116,35DR22AR5E9G2E40OC50BHR4EL93XO,one leg standing,11892.00000022538,tangram,isolated,tangram-48.jpg,NA,survey-text,18,400576
ObjectId(5ffe1777e76abe1e67949498),full_sample,108,373ERPL3YPX14ZGIUS5Z4C9E74CRTA,walking,3472,tangram,isolated,tangram-171.jpg,NA,survey-text,6,49885
ObjectId(5ffe177ee76abe1e67949499),full_sample,116,35DR22AR5E9G2E40OC50BHR4EL93XO,stand,6220.999999903142,tangram,isolated,H1.jpg,NA,survey-text,19,407300
ObjectId(5ffe177fe76abe1e6794949a),full_sample,108,373ERPL3YPX14ZGIUS5Z4C9E74CRTA,dancing,7386,tangram,isolated,tangram-53.jpg,NA,survey-text,7,57775
ObjectId(5ffe1787e76abe1e6794949b),full_sample,108,373ERPL3YPX14ZGIUS5Z4C9E74CRTA,grabbing,7759,tangram,isolated,tangram-178.jpg,NA,survey-text,8,66040
ObjectId(5ffe1788e76abe1e6794949c),full_sample,116,35DR22AR5E9G2E40OC50BHR4EL93XO,speed walk,10253.99999995716,tangram,isolated,A2.jpg,NA,survey-text,20,418058
ObjectId(5ffe1793e76abe1e6794949d),full_sample,116,35DR22AR5E9G2E40OC50BHR4EL93XO,walk slowly,10387.000000104308,tangram,isolated,tangram-44.jpg,NA,survey-text,21,428949
ObjectId(5ffe1798e76abe1e6794949e),full_sample,108,373ERPL3YPX14ZGIUS5Z4C9E74CRTA,performing,16070,tangram,isolated,tangram-179.jpg,NA,survey-text,9,82616
ObjectId(5ffe179ee76abe1e6794949f),full_sample,108,373ERPL3YPX14ZGIUS5Z4C9E74CRTA,tapdancing,5466,tangram,isolated,tangram-30.jpg,NA,survey-text,10,88586
ObjectId(5ffe17a0e76abe1e679494a0),full_sample,116,35DR22AR5E9G2E40OC50BHR4EL93XO,walk,12364.000000059605,tangram,isolated,tangram-106.jpg,NA,survey-text,22,441814
ObjectId(5ffe17a6e76abe1e679494a1),full_sample,108,373ERPL3YPX14ZGIUS5Z4C9E74CRTA,ninja,6969,tangram,isolated,N1.jpg,NA,survey-text,11,96060
ObjectId(5ffe17a9e76abe1e679494a2),full_sample,108,373ERPL3YPX14ZGIUS5Z4C9E74CRTA,praying,2796,tangram,isolated,tangram-87.jpg,NA,survey-text,12,99362
ObjectId(5ffe17aee76abe1e679494a3),full_sample,108,373ERPL3YPX14ZGIUS5Z4C9E74CRTA,skating,4787,tangram,isolated,tangram-81.jpg,NA,survey-text,13,104653
ObjectId(5ffe17afe76abe1e679494a4),full_sample,116,35DR22AR5E9G2E40OC50BHR4EL93XO,walk speed,14099.999999860302,tangram,isolated,tangram-150.jpg,NA,survey-text,23,456423
ObjectId(5ffe17b5e76abe1e679494a5),full_sample,116,35DR22AR5E9G2E40OC50BHR4EL93XO,stand,5972.000000067055,tangram,isolated,tangram-6.jpg,NA,survey-text,24,462895
ObjectId(5ffe17b6e76abe1e679494a6),full_sample,108,373ERPL3YPX14ZGIUS5Z4C9E74CRTA,breakdance,6937,tangram,isolated,tangram-4.jpg,NA,survey-text,14,112092
ObjectId(5ffe17c0e76abe1e679494a7),full_sample,116,35DR22AR5E9G2E40OC50BHR4EL93XO,run,9767.999999923632,tangram,isolated,W1.jpg,NA,survey-text,25,473177
ObjectId(5ffe17c0e76abe1e679494a8),full_sample,108,373ERPL3YPX14ZGIUS5Z4C9E74CRTA,leaning,9946,tangram,isolated,tangram-140.jpg,NA,survey-text,15,122543
ObjectId(5ffe17c4e76abe1e679494a9),full_sample,108,373ERPL3YPX14ZGIUS5Z4C9E74CRTA,kneel,3584,tangram,isolated,G1.jpg,NA,survey-text,16,126634
ObjectId(5ffe17c8e76abe1e679494aa),full_sample,116,35DR22AR5E9G2E40OC50BHR4EL93XO,running,7504.999999888241,tangram,isolated,O1.jpg,NA,survey-text,26,481187
ObjectId(5ffe17c8e76abe1e679494ab),full_sample,108,373ERPL3YPX14ZGIUS5Z4C9E74CRTA,strawberry,3350,catch,NA,catch_trial.jpg,NA,survey-text,17,130490
ObjectId(5ffe17cfe76abe1e679494ac),full_sample,116,35DR22AR5E9G2E40OC50BHR4EL93XO,run,6838.999999919906,tangram,isolated,L1.jpg,NA,survey-text,27,488545
ObjectId(5ffe17d0e76abe1e679494ad),full_sample,108,373ERPL3YPX14ZGIUS5Z4C9E74CRTA,reading,7496,tangram,isolated,tangram-155.jpg,NA,survey-text,18,138491
ObjectId(5ffe17d4e76abe1e679494ae),full_sample,108,373ERPL3YPX14ZGIUS5Z4C9E74CRTA,rushing,3207,tangram,isolated,F1.jpg,NA,survey-text,19,142201
ObjectId(5ffe17d8e76abe1e679494af),full_sample,108,373ERPL3YPX14ZGIUS5Z4C9E74CRTA,looking,4137,tangram,isolated,tangram-96.jpg,NA,survey-text,20,146844
ObjectId(5ffe17dfe76abe1e679494b0),full_sample,108,373ERPL3YPX14ZGIUS5Z4C9E74CRTA,waiting,6078,tangram,isolated,tangram-120.jpg,NA,survey-text,21,153429
ObjectId(5ffe17e5e76abe1e679494b1),full_sample,108,373ERPL3YPX14ZGIUS5Z4C9E74CRTA,carrying,5859,tangram,isolated,I1.jpg,NA,survey-text,22,159793
ObjectId(5ffe17f1e76abe1e679494b2),full_sample,108,373ERPL3YPX14ZGIUS5Z4C9E74CRTA,walking,11278,tangram,isolated,tangram-64.jpg,NA,survey-text,23,171575
ObjectId(5ffe17fce76abe1e679494b3),full_sample,108,373ERPL3YPX14ZGIUS5Z4C9E74CRTA,ponytail,10579,tangram,isolated,tangram-150.jpg,NA,survey-text,24,182658
ObjectId(5ffe180de76abe1e679494b4),full_sample,108,373ERPL3YPX14ZGIUS5Z4C9E74CRTA,touching,16743,tangram,isolated,P1.jpg,NA,survey-text,25,199907
ObjectId(5ffe1813e76abe1e679494b5),full_sample,108,373ERPL3YPX14ZGIUS5Z4C9E74CRTA,playing,4878,tangram,isolated,A1.jpg,NA,survey-text,26,205290
ObjectId(5ffe1818e76abe1e679494b6),full_sample,108,373ERPL3YPX14ZGIUS5Z4C9E74CRTA,jumping,4644,tangram,isolated,tangram-67.jpg,NA,survey-text,27,210439
ObjectId(5ffe181de76abe1e679494b7),full_sample,108,373ERPL3YPX14ZGIUS5Z4C9E74CRTA,thick,4768,tangram,isolated,tangram-44.jpg,NA,survey-text,28,215712
ObjectId(5ffe1823e76abe1e679494b8),full_sample,108,373ERPL3YPX14ZGIUS5Z4C9E74CRTA,baby,5567,tangram,isolated,tangram-106.jpg,NA,survey-text,29,221785
ObjectId(5ffe1825e76abe1e679494b9),full_sample,116,35DR22AR5E9G2E40OC50BHR4EL93XO,walk,85870.00000011176,tangram,isolated,tangram-81.jpg,NA,survey-text,28,574921
ObjectId(5ffe182be76abe1e679494ba),full_sample,108,373ERPL3YPX14ZGIUS5Z4C9E74CRTA,stretched,7087,tangram,isolated,tangram-90.jpg,NA,survey-text,30,229377
ObjectId(5ffe182be76abe1e679494bb),full_sample,116,35DR22AR5E9G2E40OC50BHR4EL93XO,stand,5141.999999992549,tangram,isolated,tangram-171.jpg,NA,survey-text,29,580563
ObjectId(5ffe182fe76abe1e679494bc),full_sample,108,373ERPL3YPX14ZGIUS5Z4C9E74CRTA,dress,3868,tangram,isolated,tangram-146.jpg,NA,survey-text,31,233749
ObjectId(5ffe1834e76abe1e679494bd),full_sample,116,35DR22AR5E9G2E40OC50BHR4EL93XO,running,8800.000000046566,tangram,isolated,tangram-67.jpg,NA,survey-text,30,589868
ObjectId(5ffe183be76abe1e679494be),full_sample,116,35DR22AR5E9G2E40OC50BHR4EL93XO,walk,6097.000000067055,tangram,isolated,tangram-146.jpg,NA,survey-text,31,596473
ObjectId(5ffe183ee76abe1e679494bf),full_sample,108,373ERPL3YPX14ZGIUS5Z4C9E74CRTA,propped,14293,tangram,isolated,tangram-187.jpg,NA,survey-text,32,248547
ObjectId(5ffe1841e76abe1e679494c0),full_sample,116,35DR22AR5E9G2E40OC50BHR4EL93XO,sit,5808.999999891967,tangram,isolated,tangram-143.jpg,NA,survey-text,32,602808
ObjectId(5ffe1a63e76abe1e679494c5),full_sample,89,3RU7GD8VPPIFDMNOS0WKPCDD43DPSU,aggressive,12986.19000002509,tangram,isolated,tangram-87.jpg,NA,survey-text,2,65778
ObjectId(5ffe1a69e76abe1e679494c6),full_sample,89,3RU7GD8VPPIFDMNOS0WKPCDD43DPSU,fall,5683.834999974351,tangram,isolated,tangram-183.jpg,NA,survey-text,3,71977
ObjectId(5ffe1a70e76abe1e679494c7),full_sample,89,3RU7GD8VPPIFDMNOS0WKPCDD43DPSU,active,6169.88499998115,tangram,isolated,A2.jpg,NA,survey-text,4,78675
ObjectId(5ffe1a86e76abe1e679494c8),full_sample,89,3RU7GD8VPPIFDMNOS0WKPCDD43DPSU,walk,21650.335000013,tangram,isolated,tangram-96.jpg,NA,survey-text,5,100865
ObjectId(5ffe1a8ce76abe1e679494c9),full_sample,89,3RU7GD8VPPIFDMNOS0WKPCDD43DPSU,resting,5729.339999961667,tangram,isolated,tangram-120.jpg,NA,survey-text,6,107143
ObjectId(5ffe1a93e76abe1e679494ca),full_sample,89,3RU7GD8VPPIFDMNOS0WKPCDD43DPSU,tumbling,5924.510000040755,tangram,isolated,tangram-8.jpg,NA,survey-text,7,113582
ObjectId(5ffe1a9de76abe1e679494cb),full_sample,89,3RU7GD8VPPIFDMNOS0WKPCDD43DPSU,energetic,9581.810000003316,tangram,isolated,tangram-9.jpg,NA,survey-text,8,123675
ObjectId(5ffe1aa3e76abe1e679494cc),full_sample,89,3RU7GD8VPPIFDMNOS0WKPCDD43DPSU,flash,5657.435000000987,tangram,isolated,R1.jpg,NA,survey-text,9,129856
ObjectId(5ffe1aa8e76abe1e679494cd),full_sample,89,3RU7GD8VPPIFDMNOS0WKPCDD43DPSU,jogging,4437.145000032615,tangram,isolated,tangram-81.jpg,NA,survey-text,10,134820
ObjectId(5ffe1aade76abe1e679494ce),full_sample,89,3RU7GD8VPPIFDMNOS0WKPCDD43DPSU,flying,4658.209999965038,tangram,isolated,O1.jpg,NA,survey-text,11,139991
ObjectId(5ffe1ab4e76abe1e679494cf),full_sample,89,3RU7GD8VPPIFDMNOS0WKPCDD43DPSU,excited,6448.499999998603,tangram,isolated,tangram-106.jpg,NA,survey-text,12,146957
ObjectId(5ffe1abce76abe1e679494d0),full_sample,89,3RU7GD8VPPIFDMNOS0WKPCDD43DPSU,thinking,7821.649999998044,tangram,isolated,tangram-74.jpg,NA,survey-text,13,155290
ObjectId(5ffe1acbe76abe1e679494d1),full_sample,89,3RU7GD8VPPIFDMNOS0WKPCDD43DPSU,friendly,13791.680000023916,tangram,isolated,H1.jpg,NA,survey-text,14,169605
ObjectId(5ffe1ae8e76abe1e679494d2),full_sample,89,3RU7GD8VPPIFDMNOS0WKPCDD43DPSU,pacing,28830.345000023954,tangram,isolated,tangram-48.jpg,NA,survey-text,15,198959
ObjectId(5ffe1aece76abe1e679494d3),full_sample,89,3RU7GD8VPPIFDMNOS0WKPCDD43DPSU,flying,3324.865000031423,tangram,isolated,tangram-32.jpg,NA,survey-text,16,202797
ObjectId(5ffe1b01e76abe1e679494d4),full_sample,89,3RU7GD8VPPIFDMNOS0WKPCDD43DPSU,strawberry,20765.814999991562,catch,NA,catch_trial.jpg,NA,survey-text,17,224074
ObjectId(5ffe1b0fe76abe1e679494d5),full_sample,89,3RU7GD8VPPIFDMNOS0WKPCDD43DPSU,posture,13639.280000003055,tangram,isolated,K1.jpg,NA,survey-text,18,238229
ObjectId(5ffe1b16e76abe1e679494d6),full_sample,89,3RU7GD8VPPIFDMNOS0WKPCDD43DPSU,tired,5871.6049999929965,tangram,isolated,B1.jpg,NA,survey-text,19,244618
ObjectId(5ffe1b1ee76abe1e679494d7),full_sample,89,3RU7GD8VPPIFDMNOS0WKPCDD43DPSU,delighted,7734.990000026301,tangram,isolated,E1.jpg,NA,survey-text,20,252888
ObjectId(5ffe1b25e76abe1e679494d8),full_sample,89,3RU7GD8VPPIFDMNOS0WKPCDD43DPSU,moody,6872.945000010077,tangram,isolated,tangram-140.jpg,NA,survey-text,21,260287
ObjectId(5ffe1b30e76abe1e679494d9),full_sample,89,3RU7GD8VPPIFDMNOS0WKPCDD43DPSU,walk,10420.019999961369,tangram,isolated,tangram-171.jpg,NA,survey-text,22,271227
ObjectId(5ffe1b34e76abe1e679494db),full_sample,89,3RU7GD8VPPIFDMNOS0WKPCDD43DPSU,dance,3387.6450000097975,tangram,isolated,T1.jpg,NA,survey-text,23,275130
ObjectId(5ffe1b3be76abe1e679494dc),full_sample,89,3RU7GD8VPPIFDMNOS0WKPCDD43DPSU,relaxed,6216.795000014827,tangram,isolated,Y1.jpg,NA,survey-text,24,281868
ObjectId(5ffe1b4ee76abe1e679494de),full_sample,94,337RC3OW06R5ETPUU38IJIO0YX7LVY,man,11677.820000011707,tangram,isolated,O1.jpg,NA,survey-text,2,36774
ObjectId(5ffe1b4ee76abe1e679494df),full_sample,89,3RU7GD8VPPIFDMNOS0WKPCDD43DPSU,happy,18491.394999960903,tangram,isolated,W1.jpg,NA,survey-text,25,300871
ObjectId(5ffe1b54e76abe1e679494e0),full_sample,94,337RC3OW06R5ETPUU38IJIO0YX7LVY,woman,5798.64500000258,tangram,isolated,tangram-146.jpg,NA,survey-text,3,43076
ObjectId(5ffe1b5ce76abe1e679494e1),full_sample,89,3RU7GD8VPPIFDMNOS0WKPCDD43DPSU,tumbling,13346.210000046995,tangram,isolated,tangram-168.jpg,NA,survey-text,26,314739
ObjectId(5ffe1b61e76abe1e679494e2),full_sample,94,337RC3OW06R5ETPUU38IJIO0YX7LVY,magician,12230.01500000828,tangram,isolated,tangram-187.jpg,NA,survey-text,4,55815
ObjectId(5ffe1b6fe76abe1e679494e3),full_sample,94,337RC3OW06R5ETPUU38IJIO0YX7LVY,athlete,14059.584999995423,tangram,isolated,tangram-168.jpg,NA,survey-text,5,70384
ObjectId(5ffe1b78e76abe1e679494e4),full_sample,94,337RC3OW06R5ETPUU38IJIO0YX7LVY,server,8006.3500000105705,tangram,isolated,I1.jpg,NA,survey-text,6,78899
ObjectId(5ffe1b80e76abe1e679494e5),full_sample,94,337RC3OW06R5ETPUU38IJIO0YX7LVY,kid,7240.730000004987,tangram,isolated,tangram-106.jpg,NA,survey-text,7,86645
ObjectId(5ffe1b8ce76abe1e679494e6),full_sample,94,337RC3OW06R5ETPUU38IJIO0YX7LVY,asian,11532.78500000306,tangram,isolated,tangram-96.jpg,NA,survey-text,8,98681
ObjectId(5ffe1b8ce76abe1e679494e7),full_sample,89,3RU7GD8VPPIFDMNOS0WKPCDD43DPSU,run,48158.070000004955,tangram,isolated,tangram-178.jpg,NA,survey-text,27,363428
ObjectId(5ffe1b93e76abe1e679494e8),full_sample,89,3RU7GD8VPPIFDMNOS0WKPCDD43DPSU,reading,5747.7599999983795,tangram,isolated,tangram-155.jpg,NA,survey-text,28,369690
ObjectId(5ffe1b95e76abe1e679494e9),full_sample,94,337RC3OW06R5ETPUU38IJIO0YX7LVY,jumper,8755.590000000666,tangram,isolated,tangram-192.jpg,NA,survey-text,9,107940
ObjectId(5ffe1b9ae76abe1e679494ea),full_sample,89,3RU7GD8VPPIFDMNOS0WKPCDD43DPSU,fall,6995.56999997003,tangram,isolated,tangram-187.jpg,NA,survey-text,29,377214
ObjectId(5ffe1b9ce76abe1e679494eb),full_sample,94,337RC3OW06R5ETPUU38IJIO0YX7LVY,prayer,6986.160000000382,tangram,isolated,C1.jpg,NA,survey-text,10,115433
ObjectId(5ffe1ba6e76abe1e679494ec),full_sample,89,3RU7GD8VPPIFDMNOS0WKPCDD43DPSU,jog,11481.214999977965,tangram,isolated,tangram-114.jpg,NA,survey-text,30,389214
ObjectId(5ffe1ba8e76abe1e679494ed),full_sample,94,337RC3OW06R5ETPUU38IJIO0YX7LVY,walking,11204.949999999371,tangram,isolated,tangram-126.jpg,NA,survey-text,11,127141
ObjectId(5ffe1baae76abe1e679494ee),full_sample,89,3RU7GD8VPPIFDMNOS0WKPCDD43DPSU,run,3138.2400000002235,tangram,isolated,L1.jpg,NA,survey-text,31,392868
ObjectId(5ffe1bb2e76abe1e679494ef),full_sample,89,3RU7GD8VPPIFDMNOS0WKPCDD43DPSU,alive,7438.160000019707,tangram,isolated,tangram-179.jpg,NA,survey-text,32,400822
ObjectId(5ffe1bb2e76abe1e679494f0),full_sample,94,337RC3OW06R5ETPUU38IJIO0YX7LVY,welcome,9844.535000011092,tangram,isolated,K1.jpg,NA,survey-text,12,137489
ObjectId(5ffe1bbde76abe1e679494f1),full_sample,94,337RC3OW06R5ETPUU38IJIO0YX7LVY,woman,9957.240000003367,tangram,isolated,tangram-103.jpg,NA,survey-text,13,147950
ObjectId(5ffe1be7e76abe1e679494f2),full_sample,94,337RC3OW06R5ETPUU38IJIO0YX7LVY,old,41538.87000000395,tangram,isolated,tangram-120.jpg,NA,survey-text,14,189995
ObjectId(5ffe1c47e76abe1e679494f3),full_sample,94,337RC3OW06R5ETPUU38IJIO0YX7LVY,child,95902.30000000156,tangram,isolated,tangram-178.jpg,NA,survey-text,15,286405
ObjectId(5ffe1c4fe76abe1e679494f4),full_sample,94,337RC3OW06R5ETPUU38IJIO0YX7LVY,sick,7564.044999991893,tangram,isolated,tangram-74.jpg,NA,survey-text,16,294476
ObjectId(5ffe1c5de76abe1e679494f5),full_sample,94,337RC3OW06R5ETPUU38IJIO0YX7LVY,strawberry,12973.595000003115,catch,NA,catch_trial.jpg,NA,survey-text,17,307959
ObjectId(5ffe1c69e76abe1e679494f6),full_sample,94,337RC3OW06R5ETPUU38IJIO0YX7LVY,sportsman,11274.205000008806,tangram,isolated,tangram-32.jpg,NA,survey-text,18,319736
ObjectId(5ffe1c6ee76abe1e679494f7),full_sample,94,337RC3OW06R5ETPUU38IJIO0YX7LVY,dancer,4527.434999996331,tangram,isolated,A1.jpg,NA,survey-text,19,324768
ObjectId(5ffe1c71e76abe1e679494f8),full_sample,94,337RC3OW06R5ETPUU38IJIO0YX7LVY,sad,3302.9200000019046,tangram,isolated,C2.jpg,NA,survey-text,20,328575
ObjectId(5ffe1c7de76abe1e679494f9),full_sample,94,337RC3OW06R5ETPUU38IJIO0YX7LVY,runner,10744.909999993979,tangram,isolated,tangram-99.jpg,NA,survey-text,21,339826
ObjectId(5ffe1c82e76abe1e679494fa),full_sample,94,337RC3OW06R5ETPUU38IJIO0YX7LVY,hug,4565.854999993462,tangram,isolated,tangram-30.jpg,NA,survey-text,22,344898
ObjectId(5ffe1c88e76abe1e679494fb),full_sample,94,337RC3OW06R5ETPUU38IJIO0YX7LVY,dancer,6064.125000004424,tangram,isolated,tangram-53.jpg,NA,survey-text,23,351466
ObjectId(5ffe1c8de76abe1e679494fc),full_sample,94,337RC3OW06R5ETPUU38IJIO0YX7LVY,sitting,4135.744999992312,tangram,isolated,tangram-140.jpg,NA,survey-text,24,356106
ObjectId(5ffe1c92e76abe1e679494fd),full_sample,94,337RC3OW06R5ETPUU38IJIO0YX7LVY,throwing,4622.465000007651,tangram,isolated,tangram-108.jpg,NA,survey-text,25,361234
ObjectId(5ffe1c9ae76abe1e679494fe),full_sample,94,337RC3OW06R5ETPUU38IJIO0YX7LVY,sorrowful,7836.40000000014,tangram,isolated,B1.jpg,NA,survey-text,26,369574
ObjectId(5ffe1cade76abe1e679494ff),full_sample,94,337RC3OW06R5ETPUU38IJIO0YX7LVY,love,18448.459999999614,tangram,isolated,W1.jpg,NA,survey-text,27,388528
ObjectId(5ffe1cb3e76abe1e67949500),full_sample,94,337RC3OW06R5ETPUU38IJIO0YX7LVY,oldman,5103.910000005271,tangram,isolated,tangram-155.jpg,NA,survey-text,28,394136
ObjectId(5ffe1cbce76abe1e67949501),full_sample,94,337RC3OW06R5ETPUU38IJIO0YX7LVY,animal,8051.115000009304,tangram,isolated,tangram-179.jpg,NA,survey-text,29,402694
ObjectId(5ffe1cd1e76abe1e67949502),full_sample,94,337RC3OW06R5ETPUU38IJIO0YX7LVY,lawyer,20465.71999999287,tangram,isolated,tangram-114.jpg,NA,survey-text,30,423666
ObjectId(5ffe1cd6e76abe1e67949503),full_sample,94,337RC3OW06R5ETPUU38IJIO0YX7LVY,sleeping,5368.405000001076,tangram,isolated,D1.jpg,NA,survey-text,31,429538
ObjectId(5ffe1ce1e76abe1e67949504),full_sample,94,337RC3OW06R5ETPUU38IJIO0YX7LVY,pulling,10109.809999994468,tangram,isolated,tangram-81.jpg,NA,survey-text,32,440152
ObjectId(5ffe1ee9e76abe1e67949507),full_sample,132,3NAPMVF0ZX4X2H2Q2ZNXY89O6FE728,person,17470.4899999997,tangram,isolated,tangram-53.jpg,NA,survey-text,2,40839
ObjectId(5ffe1ef2e76abe1e67949508),full_sample,132,3NAPMVF0ZX4X2H2Q2ZNXY89O6FE728,running,8474.619999999959,tangram,isolated,N1.jpg,NA,survey-text,3,49824
ObjectId(5ffe1efce76abe1e67949509),full_sample,132,3NAPMVF0ZX4X2H2Q2ZNXY89O6FE728,dancing,9806.099999999788,tangram,isolated,tangram-99.jpg,NA,survey-text,4,60137
ObjectId(5ffe1f60e76abe1e6794950c),full_sample,119,308Q0PEVB925RL4L6Z69ZK7BQ1XI94,Sunset,6537.724999943748,tangram,isolated,tangram-8.jpg,NA,survey-text,2,25348
ObjectId(5ffe1f66e76abe1e6794950d),full_sample,119,308Q0PEVB925RL4L6Z69ZK7BQ1XI94,Agony,6000.260000117123,tangram,isolated,tangram-155.jpg,NA,survey-text,3,31854
ObjectId(5ffe1f6ce76abe1e6794950e),full_sample,119,308Q0PEVB925RL4L6Z69ZK7BQ1XI94,Verbose,5776.945000048727,tangram,isolated,tangram-87.jpg,NA,survey-text,4,38134
ObjectId(5ffe1f76e76abe1e6794950f),full_sample,119,308Q0PEVB925RL4L6Z69ZK7BQ1XI94,Servitude,9105.3949999623,tangram,isolated,I1.jpg,NA,survey-text,5,47746
ObjectId(5ffe1f7ae76abe1e67949512),full_sample,119,308Q0PEVB925RL4L6Z69ZK7BQ1XI94,Sprint,3423.3099999837577,tangram,isolated,V1.jpg,NA,survey-text,6,51672
ObjectId(5ffe1f7ee76abe1e67949513),full_sample,119,308Q0PEVB925RL4L6Z69ZK7BQ1XI94,Shattered,3371.3299999944866,tangram,isolated,tangram-4.jpg,NA,survey-text,7,55552
ObjectId(5ffe1f9be76abe1e67949514),full_sample,119,308Q0PEVB925RL4L6Z69ZK7BQ1XI94,Strength,28769.68999998644,tangram,isolated,tangram-81.jpg,NA,survey-text,8,84826
ObjectId(5ffe1fa4e76abe1e67949515),full_sample,119,308Q0PEVB925RL4L6Z69ZK7BQ1XI94,Pose,8295.205000089481,tangram,isolated,tangram-44.jpg,NA,survey-text,9,93625
ObjectId(5ffe1fa6e76abe1e67949516),full_sample,119,308Q0PEVB925RL4L6Z69ZK7BQ1XI94,Kick,2027.8799999505281,tangram,isolated,tangram-164.jpg,NA,survey-text,10,96170
ObjectId(5ffe1faae76abe1e67949517),full_sample,119,308Q0PEVB925RL4L6Z69ZK7BQ1XI94,Refined,3634.535000193864,tangram,isolated,tangram-90.jpg,NA,survey-text,11,100322
ObjectId(5ffe1fb9e76abe1e67949518),full_sample,119,308Q0PEVB925RL4L6Z69ZK7BQ1XI94,Tumble,14404.859999893233,tangram,isolated,tangram-183.jpg,NA,survey-text,12,115234
ObjectId(5ffe1fc0e76abe1e67949519),full_sample,119,308Q0PEVB925RL4L6Z69ZK7BQ1XI94,Decapitate,6140.409999992698,tangram,isolated,tangram-9.jpg,NA,survey-text,13,121892
ObjectId(5ffe1fc5e76abe1e6794951a),full_sample,119,308Q0PEVB925RL4L6Z69ZK7BQ1XI94,Erect,4346.329999854788,tangram,isolated,tangram-71.jpg,NA,survey-text,14,126755
ObjectId(5ffe1fcfe76abe1e6794951b),full_sample,119,308Q0PEVB925RL4L6Z69ZK7BQ1XI94,Sitting,9542.23999986425,tangram,isolated,tangram-120.jpg,NA,survey-text,15,136810
ObjectId(5ffe1fd2e76abe1e6794951c),full_sample,119,308Q0PEVB925RL4L6Z69ZK7BQ1XI94,Walk,2280.229999916628,tangram,isolated,tangram-171.jpg,NA,survey-text,16,139594
ObjectId(5ffe1fd5e76abe1e6794951d),full_sample,119,308Q0PEVB925RL4L6Z69ZK7BQ1XI94,strawberry,2948.7099999096245,catch,NA,catch_trial.jpg,NA,survey-text,17,143057
ObjectId(5ffe1fdde76abe1e6794951e),full_sample,119,308Q0PEVB925RL4L6Z69ZK7BQ1XI94,Trip,7715.219999896362,tangram,isolated,J1.jpg,NA,survey-text,18,151290
ObjectId(5ffe1fe2e76abe1e6794951f),full_sample,119,308Q0PEVB925RL4L6Z69ZK7BQ1XI94,Pray,3981.1000002082437,tangram,isolated,tangram-143.jpg,NA,survey-text,19,155778
ObjectId(5ffe200ae76abe1e67949520),full_sample,119,308Q0PEVB925RL4L6Z69ZK7BQ1XI94,Folded,39369.44500007667,tangram,isolated,tangram-74.jpg,NA,survey-text,20,195657
ObjectId(5ffe2010e76abe1e67949521),full_sample,119,308Q0PEVB925RL4L6Z69ZK7BQ1XI94,Jester,6138.920000055805,tangram,isolated,tangram-114.jpg,NA,survey-text,21,202305
ObjectId(5ffe2022e76abe1e67949522),full_sample,119,308Q0PEVB925RL4L6Z69ZK7BQ1XI94,Prance,16673.149999929592,tangram,isolated,O1.jpg,NA,survey-text,22,219481
ObjectId(5ffe2032e76abe1e67949523),full_sample,119,308Q0PEVB925RL4L6Z69ZK7BQ1XI94,Jog,15547.755000181496,tangram,isolated,W1.jpg,NA,survey-text,23,235842
ObjectId(5ffe2036e76abe1e67949524),full_sample,119,308Q0PEVB925RL4L6Z69ZK7BQ1XI94,Dancing,3472.3999998532236,tangram,isolated,tangram-179.jpg,NA,survey-text,24,239818
ObjectId(5ffe2042e76abe1e67949525),full_sample,119,308Q0PEVB925RL4L6Z69ZK7BQ1XI94,Sprint,11769.650000147521,tangram,isolated,N1.jpg,NA,survey-text,25,252090
ObjectId(5ffe2045e76abe1e67949526),full_sample,119,308Q0PEVB925RL4L6Z69ZK7BQ1XI94,regal,2638.434999855235,tangram,isolated,tangram-146.jpg,NA,survey-text,26,255241
ObjectId(5ffe2049e76abe1e67949527),full_sample,119,308Q0PEVB925RL4L6Z69ZK7BQ1XI94,royal,2792.484999867156,tangram,isolated,A1.jpg,NA,survey-text,27,258538
ObjectId(5ffe205ce76abe1e67949528),full_sample,119,308Q0PEVB925RL4L6Z69ZK7BQ1XI94,Twirl,18770.340000046417,tangram,isolated,tangram-106.jpg,NA,survey-text,28,277818
ObjectId(5ffe2061e76abe1e67949529),full_sample,119,308Q0PEVB925RL4L6Z69ZK7BQ1XI94,Obese,4983.585000038147,tangram,isolated,tangram-142.jpg,NA,survey-text,29,283306
ObjectId(5ffe2064e76abe1e6794952a),full_sample,119,308Q0PEVB925RL4L6Z69ZK7BQ1XI94,Charge,2004.539999878034,tangram,isolated,R1.jpg,NA,survey-text,30,285826
ObjectId(5ffe2066e76abe1e6794952b),full_sample,119,308Q0PEVB925RL4L6Z69ZK7BQ1XI94,Bent,1762.3750001657754,tangram,isolated,K1.jpg,NA,survey-text,31,288090
ObjectId(5ffe206be76abe1e6794952c),full_sample,119,308Q0PEVB925RL4L6Z69ZK7BQ1XI94,Happy,4182.395000010729,tangram,isolated,tangram-53.jpg,NA,survey-text,32,292786
ObjectId(5ffe21eae76abe1e6794952f),full_sample,72,379J5II41P5OCI38ZDJ8JE0EY29ELQ,triangel,5311.294999904931,tangram,isolated,tangram-90.jpg,NA,survey-text,2,12709
ObjectId(5ffe21eee76abe1e67949530),full_sample,72,379J5II41P5OCI38ZDJ8JE0EY29ELQ,dress,2778.3500000368804,tangram,isolated,tangram-103.jpg,NA,survey-text,3,16016
ObjectId(5ffe21f0e76abe1e67949531),full_sample,72,379J5II41P5OCI38ZDJ8JE0EY29ELQ,tower,2006.705000065267,tangram,isolated,M1.jpg,NA,survey-text,4,18532
ObjectId(5ffe21f2e76abe1e67949532),full_sample,72,379J5II41P5OCI38ZDJ8JE0EY29ELQ,man,1312.995000043884,tangram,isolated,C1.jpg,NA,survey-text,5,20354
ObjectId(5ffe21f4e76abe1e67949533),full_sample,72,379J5II41P5OCI38ZDJ8JE0EY29ELQ,horse,1323.8999999593943,tangram,isolated,tangram-114.jpg,NA,survey-text,6,22185
ObjectId(5ffe21f6e76abe1e67949534),full_sample,72,379J5II41P5OCI38ZDJ8JE0EY29ELQ,csr,1172.0050000585616,tangram,isolated,D1.jpg,NA,survey-text,7,23870
ObjectId(5ffe21f8e76abe1e67949535),full_sample,72,379J5II41P5OCI38ZDJ8JE0EY29ELQ,man,1993.8050000928342,tangram,isolated,H1.jpg,NA,survey-text,8,26389
ObjectId(5ffe21fae76abe1e67949536),full_sample,72,379J5II41P5OCI38ZDJ8JE0EY29ELQ,dog,1797.5749999750406,tangram,isolated,tangram-179.jpg,NA,survey-text,9,28701
ObjectId(5ffe21fce76abe1e67949537),full_sample,72,379J5II41P5OCI38ZDJ8JE0EY29ELQ,woman,1563.6599999852479,tangram,isolated,tangram-126.jpg,NA,survey-text,10,30791
ObjectId(5ffe21fee76abe1e67949538),full_sample,72,379J5II41P5OCI38ZDJ8JE0EY29ELQ,cat,1028.7250000983477,tangram,isolated,T1.jpg,NA,survey-text,11,32333
ObjectId(5ffe2201e76abe1e67949539),full_sample,72,379J5II41P5OCI38ZDJ8JE0EY29ELQ,man,2116.6749999392778,tangram,isolated,tangram-171.jpg,NA,survey-text,12,34955
ObjectId(5ffe2202e76abe1e6794953a),full_sample,72,379J5II41P5OCI38ZDJ8JE0EY29ELQ,man,1097.330000018701,tangram,isolated,A1.jpg,NA,survey-text,13,36562
ObjectId(5ffe2204e76abe1e6794953b),full_sample,72,379J5II41P5OCI38ZDJ8JE0EY29ELQ,man,975.6700000725687,tangram,isolated,tangram-142.jpg,NA,survey-text,14,38042
ObjectId(5ffe2205e76abe1e6794953c),full_sample,72,379J5II41P5OCI38ZDJ8JE0EY29ELQ,man,937.6199999824166,tangram,isolated,tangram-140.jpg,NA,survey-text,15,39488
ObjectId(5ffe2206e76abe1e6794953d),full_sample,72,379J5II41P5OCI38ZDJ8JE0EY29ELQ,man,874.3400000967085,tangram,isolated,O1.jpg,NA,survey-text,16,40868
ObjectId(5ffe220be76abe1e6794953e),full_sample,72,379J5II41P5OCI38ZDJ8JE0EY29ELQ,strawberry,3701.5199998859316,catch,NA,catch_trial.jpg,NA,survey-text,17,45076
ObjectId(5ffe220ce76abe1e6794953f),full_sample,72,379J5II41P5OCI38ZDJ8JE0EY29ELQ,man,680.7199998293072,tangram,isolated,tangram-32.jpg,NA,survey-text,18,46268
ObjectId(5ffe220de76abe1e67949540),full_sample,72,379J5II41P5OCI38ZDJ8JE0EY29ELQ,man,721.8750000465661,tangram,isolated,N1.jpg,NA,survey-text,19,47498
ObjectId(5ffe220ee76abe1e67949541),full_sample,72,379J5II41P5OCI38ZDJ8JE0EY29ELQ,man,811.9350001215935,tangram,isolated,tangram-9.jpg,NA,survey-text,20,48814
ObjectId(5ffe2210e76abe1e67949542),full_sample,72,379J5II41P5OCI38ZDJ8JE0EY29ELQ,man,747.2499997820705,tangram,isolated,tangram-187.jpg,NA,survey-text,21,50076
ObjectId(5ffe2211e76abe1e67949543),full_sample,72,379J5II41P5OCI38ZDJ8JE0EY29ELQ,man,610.4150000028312,tangram,isolated,tangram-120.jpg,NA,survey-text,22,51195
ObjectId(5ffe2212e76abe1e67949544),full_sample,72,379J5II41P5OCI38ZDJ8JE0EY29ELQ,man,986.8850000202656,tangram,isolated,tangram-71.jpg,NA,survey-text,23,52688
ObjectId(5ffe2214e76abe1e67949545),full_sample,72,379J5II41P5OCI38ZDJ8JE0EY29ELQ,man,686.2399999517947,tangram,isolated,tangram-44.jpg,NA,survey-text,24,53886
ObjectId(5ffe2215e76abe1e67949546),full_sample,72,379J5II41P5OCI38ZDJ8JE0EY29ELQ,man,679.6099999919534,tangram,isolated,tangram-146.jpg,NA,survey-text,25,55078
ObjectId(5ffe2216e76abe1e67949547),full_sample,72,379J5II41P5OCI38ZDJ8JE0EY29ELQ,man,759.6249999478459,tangram,isolated,K1.jpg,NA,survey-text,26,56344
ObjectId(5ffe2217e76abe1e67949548),full_sample,72,379J5II41P5OCI38ZDJ8JE0EY29ELQ,man,661.4400001708418,tangram,isolated,E1.jpg,NA,survey-text,27,57514
ObjectId(5ffe2219e76abe1e67949549),full_sample,72,379J5II41P5OCI38ZDJ8JE0EY29ELQ,man,911.054999800399,tangram,isolated,P1.jpg,NA,survey-text,28,58932
ObjectId(5ffe221ae76abe1e6794954a),full_sample,72,379J5II41P5OCI38ZDJ8JE0EY29ELQ,man,755.5849999189377,tangram,isolated,tangram-81.jpg,NA,survey-text,29,60197
ObjectId(5ffe221ce76abe1e6794954b),full_sample,72,379J5II41P5OCI38ZDJ8JE0EY29ELQ,sit,1303.804999915883,tangram,isolated,tangram-143.jpg,NA,survey-text,30,62007
ObjectId(5ffe221de76abe1e6794954c),full_sample,72,379J5II41P5OCI38ZDJ8JE0EY29ELQ,man,628.410000121221,tangram,isolated,tangram-8.jpg,NA,survey-text,31,63144
ObjectId(5ffe221ee76abe1e6794954d),full_sample,72,379J5II41P5OCI38ZDJ8JE0EY29ELQ,man,432.33999982476234,tangram,isolated,tangram-53.jpg,NA,survey-text,32,64082
ObjectId(5ffe2e14e76abe1e67949550),full_sample,88,3QUO65DNQVDD7Z3R25E5FDQBFVLUOH,Very nice,11530.08999954909,tangram,isolated,tangram-120.jpg,NA,survey-text,2,28839
ObjectId(5ffe2e18e76abe1e67949551),full_sample,88,3QUO65DNQVDD7Z3R25E5FDQBFVLUOH,Very nice,3588.699999731034,tangram,isolated,P1.jpg,NA,survey-text,3,32935
ObjectId(5ffe2e1be76abe1e67949552),full_sample,88,3QUO65DNQVDD7Z3R25E5FDQBFVLUOH,Very nice,2365.110000129789,tangram,isolated,tangram-142.jpg,NA,survey-text,4,35806
ObjectId(5ffe2e1ee76abe1e67949553),full_sample,88,3QUO65DNQVDD7Z3R25E5FDQBFVLUOH,Very nice,2405.915000010282,tangram,isolated,I1.jpg,NA,survey-text,5,38718
ObjectId(5ffe2e21e76abe1e67949554),full_sample,88,3QUO65DNQVDD7Z3R25E5FDQBFVLUOH,Very nice,2031.579999718815,tangram,isolated,K1.jpg,NA,survey-text,6,41255
ObjectId(5ffe2e23e76abe1e67949555),full_sample,88,3QUO65DNQVDD7Z3R25E5FDQBFVLUOH,Very nice,2012.4750002287328,tangram,isolated,tangram-114.jpg,NA,survey-text,7,43773
ObjectId(5ffe2e25e76abe1e67949556),full_sample,88,3QUO65DNQVDD7Z3R25E5FDQBFVLUOH,Very nice,1885.505000129342,tangram,isolated,tangram-9.jpg,NA,survey-text,8,46165
ObjectId(5ffe2e28e76abe1e67949557),full_sample,88,3QUO65DNQVDD7Z3R25E5FDQBFVLUOH,Very nice,2423.1599997729063,tangram,isolated,tangram-106.jpg,NA,survey-text,9,49094
ObjectId(5ffe2e2be76abe1e67949558),full_sample,88,3QUO65DNQVDD7Z3R25E5FDQBFVLUOH,Very nice,2468.1850001215935,tangram,isolated,tangram-168.jpg,NA,survey-text,10,52069
ObjectId(5ffe2e2fe76abe1e67949559),full_sample,88,3QUO65DNQVDD7Z3R25E5FDQBFVLUOH,Very nice,2683.7550001218915,tangram,isolated,tangram-81.jpg,NA,survey-text,11,55260
ObjectId(5ffe2e32e76abe1e6794955a),full_sample,88,3QUO65DNQVDD7Z3R25E5FDQBFVLUOH,Very nice,3246.0000002756715,tangram,isolated,tangram-6.jpg,NA,survey-text,12,59015
ObjectId(5ffe2e35e76abe1e6794955b),full_sample,88,3QUO65DNQVDD7Z3R25E5FDQBFVLUOH,Very nice,2437.665000092238,tangram,isolated,tangram-71.jpg,NA,survey-text,13,61959
ObjectId(5ffe2e39e76abe1e6794955c),full_sample,88,3QUO65DNQVDD7Z3R25E5FDQBFVLUOH,Very nice,2908.989999908954,tangram,isolated,A2.jpg,NA,survey-text,14,65374
ObjectId(5ffe2e3ce76abe1e6794955d),full_sample,88,3QUO65DNQVDD7Z3R25E5FDQBFVLUOH,Very nice,2525.8300001733005,tangram,isolated,tangram-4.jpg,NA,survey-text,15,68406
ObjectId(5ffe2e40e76abe1e6794955e),full_sample,88,3QUO65DNQVDD7Z3R25E5FDQBFVLUOH,Very nice,4149.960000067949,tangram,isolated,tangram-171.jpg,NA,survey-text,16,73062
ObjectId(5ffe2ec8e76abe1e6794955f),full_sample,88,3QUO65DNQVDD7Z3R25E5FDQBFVLUOH,Strawberry,135094.94500001892,catch,NA,catch_trial.jpg,NA,survey-text,17,208668
ObjectId(5ffe2ecde76abe1e67949560),full_sample,88,3QUO65DNQVDD7Z3R25E5FDQBFVLUOH,Very nice,4633.100000210106,tangram,isolated,tangram-111.jpg,NA,survey-text,18,213809
ObjectId(5ffe2ed0e76abe1e67949561),full_sample,88,3QUO65DNQVDD7Z3R25E5FDQBFVLUOH,Very nice,2811.1049998551607,tangram,isolated,tangram-48.jpg,NA,survey-text,19,217127
ObjectId(5ffe2ed3e76abe1e67949562),full_sample,88,3QUO65DNQVDD7Z3R25E5FDQBFVLUOH,Very nice,2077.3800001479685,tangram,isolated,tangram-103.jpg,NA,survey-text,20,219710
ObjectId(5ffe2ed6e76abe1e67949563),full_sample,88,3QUO65DNQVDD7Z3R25E5FDQBFVLUOH,Very nice,2093.0649996735156,tangram,isolated,B1.jpg,NA,survey-text,21,222311
ObjectId(5ffe2ed8e76abe1e67949564),full_sample,88,3QUO65DNQVDD7Z3R25E5FDQBFVLUOH,Very nice,2119.3949999287724,tangram,isolated,R1.jpg,NA,survey-text,22,224935
ObjectId(5ffe2edbe76abe1e67949565),full_sample,88,3QUO65DNQVDD7Z3R25E5FDQBFVLUOH,Very nice,2622.6599998772144,tangram,isolated,tangram-87.jpg,NA,survey-text,23,228063
ObjectId(5ffe2edee76abe1e67949566),full_sample,88,3QUO65DNQVDD7Z3R25E5FDQBFVLUOH,Very nice,2365.5900000594556,tangram,isolated,C2.jpg,NA,survey-text,24,230935
ObjectId(5ffe2ee4e76abe1e67949567),full_sample,88,3QUO65DNQVDD7Z3R25E5FDQBFVLUOH,Very nice,5021.350000053644,tangram,isolated,tangram-55.jpg,NA,survey-text,25,236462
ObjectId(5ffe2ee7e76abe1e67949568),full_sample,88,3QUO65DNQVDD7Z3R25E5FDQBFVLUOH,Very nice,3078.3400000073016,tangram,isolated,O1.jpg,NA,survey-text,26,240046
ObjectId(5ffe2eeae76abe1e67949569),full_sample,88,3QUO65DNQVDD7Z3R25E5FDQBFVLUOH,Very nice,2157.634999603033,tangram,isolated,tangram-192.jpg,NA,survey-text,27,242709
