iterationName,wID,aID,utterance,rt,target_type,competitor_type,target,foil,trial_type,trial_index,time_elapsed
full_sample,29,352YTHGROW24YKNPJMSXI0VG4VMH4U,man,5752,tangram,isolated,C2.jpg,NA,survey-text,2,21944
full_sample,29,352YTHGROW24YKNPJMSXI0VG4VMH4U,thief,6047,tangram,isolated,P1.jpg,NA,survey-text,3,28508
full_sample,29,352YTHGROW24YKNPJMSXI0VG4VMH4U,dress,17342,tangram,isolated,M1.jpg,NA,survey-text,4,46356
full_sample,29,352YTHGROW24YKNPJMSXI0VG4VMH4U,horse,4826,tangram,isolated,tangram-114.jpg,NA,survey-text,5,51701
full_sample,29,352YTHGROW24YKNPJMSXI0VG4VMH4U,prayer,8954,tangram,isolated,tangram-111.jpg,NA,survey-text,6,61164
full_sample,29,352YTHGROW24YKNPJMSXI0VG4VMH4U,dog,11355,tangram,isolated,tangram-179.jpg,NA,survey-text,7,73028
full_sample,29,352YTHGROW24YKNPJMSXI0VG4VMH4U,run,11926,tangram,isolated,tangram-150.jpg,NA,survey-text,8,85469
full_sample,29,352YTHGROW24YKNPJMSXI0VG4VMH4U,bow,5842,tangram,isolated,tangram-140.jpg,NA,survey-text,9,91820
full_sample,28,35GCEFQ6I6D5794FPUTL827FML73ZL,runner,8105.94499995932,tangram,isolated,tangram-55.jpg,NA,survey-text,2,82662
full_sample,29,352YTHGROW24YKNPJMSXI0VG4VMH4U,lean,9335,tangram,isolated,tangram-126.jpg,NA,survey-text,10,101668
full_sample,28,35GCEFQ6I6D5794FPUTL827FML73ZL,hiking,9648.76499993261,tangram,isolated,L1.jpg,NA,survey-text,3,92814
full_sample,28,35GCEFQ6I6D5794FPUTL827FML73ZL,sitting,6189.02499997057,tangram,isolated,G1.jpg,NA,survey-text,4,99506
full_sample,29,352YTHGROW24YKNPJMSXI0VG4VMH4U,sprint,10337,tangram,isolated,tangram-55.jpg,NA,survey-text,11,112523
full_sample,28,35GCEFQ6I6D5794FPUTL827FML73ZL,lounging,7308.334999950603,tangram,isolated,tangram-143.jpg,NA,survey-text,5,107320
full_sample,29,352YTHGROW24YKNPJMSXI0VG4VMH4U,skip,6699,tangram,isolated,tangram-32.jpg,NA,survey-text,12,119731
full_sample,105,3TR2532VIQJE4DMTQAOXRBV9DEW6J9,running,6810.889999993378,tangram,isolated,R1.jpg,NA,survey-text,2,26574
full_sample,28,35GCEFQ6I6D5794FPUTL827FML73ZL,digging,4175.354999955744,tangram,isolated,tangram-192.jpg,NA,survey-text,6,111998
full_sample,28,35GCEFQ6I6D5794FPUTL827FML73ZL,falling,3360.3900000452995,tangram,isolated,tangram-183.jpg,NA,survey-text,7,115862
full_sample,29,352YTHGROW24YKNPJMSXI0VG4VMH4U,relaxation,6588,tangram,isolated,tangram-183.jpg,NA,survey-text,13,126828
full_sample,105,3TR2532VIQJE4DMTQAOXRBV9DEW6J9,jogging,9868.784999998752,tangram,isolated,A1.jpg,NA,survey-text,3,36951
full_sample,28,35GCEFQ6I6D5794FPUTL827FML73ZL,climbing,8660.425000009127,tangram,isolated,tangram-9.jpg,NA,survey-text,8,125026
full_sample,28,35GCEFQ6I6D5794FPUTL827FML73ZL,rowing,3296.870000078343,tangram,isolated,D1.jpg,NA,survey-text,9,128826
full_sample,105,3TR2532VIQJE4DMTQAOXRBV9DEW6J9,walking,7703.670000017155,tangram,isolated,tangram-44.jpg,NA,survey-text,4,45166
full_sample,29,352YTHGROW24YKNPJMSXI0VG4VMH4U,dance,13129,tangram,isolated,tangram-192.jpg,NA,survey-text,14,140468
full_sample,29,352YTHGROW24YKNPJMSXI0VG4VMH4U,beg,5313,tangram,isolated,I1.jpg,NA,survey-text,15,146284
full_sample,105,3TR2532VIQJE4DMTQAOXRBV9DEW6J9,sleeping,7531.539999996312,tangram,isolated,Y1.jpg,NA,survey-text,5,53207
full_sample,28,35GCEFQ6I6D5794FPUTL827FML73ZL,walking,8607.350000063889,tangram,isolated,F1.jpg,NA,survey-text,10,137937
full_sample,105,3TR2532VIQJE4DMTQAOXRBV9DEW6J9,lounging,5482.929999998305,tangram,isolated,D1.jpg,NA,survey-text,6,59198
full_sample,29,352YTHGROW24YKNPJMSXI0VG4VMH4U,rejection,7844,tangram,isolated,tangram-64.jpg,NA,survey-text,16,154636
full_sample,28,35GCEFQ6I6D5794FPUTL827FML73ZL,pedestrian,8133.4550000028685,tangram,isolated,tangram-96.jpg,NA,survey-text,11,146574
full_sample,105,3TR2532VIQJE4DMTQAOXRBV9DEW6J9,dancing,4369.735000014771,tangram,isolated,tangram-53.jpg,NA,survey-text,7,64088
full_sample,28,35GCEFQ6I6D5794FPUTL827FML73ZL,playing,5511.784999980591,tangram,isolated,O1.jpg,NA,survey-text,12,152590
full_sample,105,3TR2532VIQJE4DMTQAOXRBV9DEW6J9,kicking,5220.549999998184,tangram,isolated,tangram-187.jpg,NA,survey-text,8,69818
full_sample,29,352YTHGROW24YKNPJMSXI0VG4VMH4U,strawberry,9611,catch,NA,catch_trial.jpg,NA,survey-text,17,164755
full_sample,28,35GCEFQ6I6D5794FPUTL827FML73ZL,marching,6182.009999989532,tangram,isolated,tangram-108.jpg,NA,survey-text,13,159275
full_sample,28,35GCEFQ6I6D5794FPUTL827FML73ZL,dancing,3655.3700000513345,tangram,isolated,tangram-30.jpg,NA,survey-text,14,163435
full_sample,29,352YTHGROW24YKNPJMSXI0VG4VMH4U,dress,11751,tangram,isolated,tangram-146.jpg,NA,survey-text,18,177020
full_sample,105,3TR2532VIQJE4DMTQAOXRBV9DEW6J9,reading,14199.599999992643,tangram,isolated,tangram-4.jpg,NA,survey-text,9,84523
full_sample,105,3TR2532VIQJE4DMTQAOXRBV9DEW6J9,standing,4153.01000000909,tangram,isolated,C2.jpg,NA,survey-text,10,89184
full_sample,28,35GCEFQ6I6D5794FPUTL827FML73ZL,crossing,9389.354999992065,tangram,isolated,tangram-178.jpg,NA,survey-text,15,173327
full_sample,29,352YTHGROW24YKNPJMSXI0VG4VMH4U,praying,7080,tangram,isolated,C1.jpg,NA,survey-text,19,184619
full_sample,29,352YTHGROW24YKNPJMSXI0VG4VMH4U,Santa,8606,tangram,isolated,tangram-9.jpg,NA,survey-text,20,193731
full_sample,105,3TR2532VIQJE4DMTQAOXRBV9DEW6J9,washing,10478.224999998929,tangram,isolated,tangram-179.jpg,NA,survey-text,11,100169
full_sample,29,352YTHGROW24YKNPJMSXI0VG4VMH4U,monk,6843,tangram,isolated,tangram-87.jpg,NA,survey-text,21,201091
full_sample,28,35GCEFQ6I6D5794FPUTL827FML73ZL,walking,20105.845000012778,tangram,isolated,tangram-99.jpg,NA,survey-text,16,193936
full_sample,5,3JMSRU9HQJJR8NF2DHLE6NYGPZREVN,man,8195.169999962673,tangram,isolated,tangram-168.jpg,NA,survey-text,2,42006
full_sample,105,3TR2532VIQJE4DMTQAOXRBV9DEW6J9,napping,13057.449999992969,tangram,isolated,tangram-87.jpg,NA,survey-text,12,113729
full_sample,5,3JMSRU9HQJJR8NF2DHLE6NYGPZREVN,standing,4848.235000157729,tangram,isolated,T1.jpg,NA,survey-text,3,47365
full_sample,29,352YTHGROW24YKNPJMSXI0VG4VMH4U,girl,10078,tangram,isolated,A2.jpg,NA,survey-text,22,211675
full_sample,28,35GCEFQ6I6D5794FPUTL827FML73ZL,strawberry,7837.100000004284,catch,NA,catch_trial.jpg,NA,survey-text,17,202278
full_sample,105,3TR2532VIQJE4DMTQAOXRBV9DEW6J9,relaxing,5136.310000001686,tangram,isolated,tangram-164.jpg,NA,survey-text,13,119372
full_sample,42,3ZPPDN2SLWLTBG2ZAGGIE59JY789E2,running,5684.409999999843,tangram,isolated,tangram-64.jpg,NA,survey-text,2,25700
full_sample,5,3JMSRU9HQJJR8NF2DHLE6NYGPZREVN,throw,4591.245000017807,tangram,isolated,tangram-108.jpg,NA,survey-text,4,52468
full_sample,5,3JMSRU9HQJJR8NF2DHLE6NYGPZREVN,dance,2210.6550000607967,tangram,isolated,tangram-103.jpg,NA,survey-text,5,55189
full_sample,28,35GCEFQ6I6D5794FPUTL827FML73ZL,running,4988.974999985658,tangram,isolated,tangram-81.jpg,NA,survey-text,18,207771
full_sample,42,3ZPPDN2SLWLTBG2ZAGGIE59JY789E2,reading,4009.3350000006467,tangram,isolated,tangram-6.jpg,NA,survey-text,3,30222
full_sample,105,3TR2532VIQJE4DMTQAOXRBV9DEW6J9,leaning,5899.329999985639,tangram,isolated,tangram-140.jpg,NA,survey-text,14,125776
full_sample,5,3JMSRU9HQJJR8NF2DHLE6NYGPZREVN,basketball,3810.4649998713285,tangram,isolated,A1.jpg,NA,survey-text,6,59508
full_sample,29,352YTHGROW24YKNPJMSXI0VG4VMH4U,athlete,10109,tangram,isolated,tangram-90.jpg,NA,survey-text,23,222299
full_sample,42,3ZPPDN2SLWLTBG2ZAGGIE59JY789E2,crouching,4163.504999999532,tangram,isolated,tangram-9.jpg,NA,survey-text,4,34890
full_sample,28,35GCEFQ6I6D5794FPUTL827FML73ZL,falling,5879.460000083782,tangram,isolated,tangram-179.jpg,NA,survey-text,19,214154
full_sample,5,3JMSRU9HQJJR8NF2DHLE6NYGPZREVN,hill,2291.20000009425,tangram,isolated,tangram-87.jpg,NA,survey-text,7,62316
full_sample,105,3TR2532VIQJE4DMTQAOXRBV9DEW6J9,fighting,6532.209999975748,tangram,isolated,tangram-178.jpg,NA,survey-text,15,132823
full_sample,5,3JMSRU9HQJJR8NF2DHLE6NYGPZREVN,jump,4222.779999952763,tangram,isolated,tangram-119.jpg,NA,survey-text,8,67053
full_sample,42,3ZPPDN2SLWLTBG2ZAGGIE59JY789E2,skipping,5563.67500000033,tangram,isolated,V1.jpg,NA,survey-text,5,40959
full_sample,28,35GCEFQ6I6D5794FPUTL827FML73ZL,hazardous,7366.309999953955,tangram,isolated,tangram-8.jpg,NA,survey-text,20,222023
full_sample,29,352YTHGROW24YKNPJMSXI0VG4VMH4U,sport,10502,tangram,isolated,tangram-106.jpg,NA,survey-text,24,233314
full_sample,5,3JMSRU9HQJJR8NF2DHLE6NYGPZREVN,dance,3185.25500013493,tangram,isolated,tangram-30.jpg,NA,survey-text,9,70748
full_sample,42,3ZPPDN2SLWLTBG2ZAGGIE59JY789E2,dancing,3672.5100000003295,tangram,isolated,tangram-103.jpg,NA,survey-text,6,45135
full_sample,28,35GCEFQ6I6D5794FPUTL827FML73ZL,sports,3639.9400000227615,tangram,isolated,tangram-48.jpg,NA,survey-text,21,226167
full_sample,5,3JMSRU9HQJJR8NF2DHLE6NYGPZREVN,walk,2994.359999895096,tangram,isolated,tangram-96.jpg,NA,survey-text,10,74270
full_sample,105,3TR2532VIQJE4DMTQAOXRBV9DEW6J9,huddling,10401.24000000651,tangram,isolated,tangram-9.jpg,NA,survey-text,16,143732
full_sample,5,3JMSRU9HQJJR8NF2DHLE6NYGPZREVN,run,1792.5849999301136,tangram,isolated,tangram-55.jpg,NA,survey-text,11,76572
full_sample,42,3ZPPDN2SLWLTBG2ZAGGIE59JY789E2,sitting,4847.53499999988,tangram,isolated,tangram-164.jpg,NA,survey-text,7,50487
full_sample,29,352YTHGROW24YKNPJMSXI0VG4VMH4U,running,6741,tangram,isolated,F1.jpg,NA,survey-text,25,240571
full_sample,105,3TR2532VIQJE4DMTQAOXRBV9DEW6J9,strawberry,4688.869999983581,catch,NA,catch_trial.jpg,NA,survey-text,17,148938
full_sample,42,3ZPPDN2SLWLTBG2ZAGGIE59JY789E2,running,3406.380000000354,tangram,isolated,tangram-55.jpg,NA,survey-text,8,54398
full_sample,28,35GCEFQ6I6D5794FPUTL827FML73ZL,friends,6969.400000059977,tangram,isolated,tangram-53.jpg,NA,survey-text,22,233639
full_sample,5,3JMSRU9HQJJR8NF2DHLE6NYGPZREVN,hoop,6206.119999988005,tangram,isolated,tangram-126.jpg,NA,survey-text,12,83293
full_sample,29,352YTHGROW24YKNPJMSXI0VG4VMH4U,sitting,6441,tangram,isolated,tangram-164.jpg,NA,survey-text,26,247531
full_sample,42,3ZPPDN2SLWLTBG2ZAGGIE59JY789E2,jumping,4287.865000000238,tangram,isolated,tangram-192.jpg,NA,survey-text,9,59191
full_sample,5,3JMSRU9HQJJR8NF2DHLE6NYGPZREVN,jump,2582.440000027418,tangram,isolated,tangram-111.jpg,NA,survey-text,13,86388
full_sample,28,35GCEFQ6I6D5794FPUTL827FML73ZL,education,5330.590000026859,tangram,isolated,tangram-6.jpg,NA,survey-text,23,239484
full_sample,105,3TR2532VIQJE4DMTQAOXRBV9DEW6J9,sprinting,6840.895000001183,tangram,isolated,tangram-67.jpg,NA,survey-text,18,156290
full_sample,42,3ZPPDN2SLWLTBG2ZAGGIE59JY789E2,walking,2399.1949999999633,tangram,isolated,tangram-171.jpg,NA,survey-text,10,62094
full_sample,5,3JMSRU9HQJJR8NF2DHLE6NYGPZREVN,stand,2022.5900001823902,tangram,isolated,Y1.jpg,NA,survey-text,14,88926
full_sample,5,3JMSRU9HQJJR8NF2DHLE6NYGPZREVN,love,2848.0749998707324,tangram,isolated,tangram-179.jpg,NA,survey-text,15,92285
full_sample,29,352YTHGROW24YKNPJMSXI0VG4VMH4U,snake,8587,tangram,isolated,tangram-155.jpg,NA,survey-text,27,256626
full_sample,42,3ZPPDN2SLWLTBG2ZAGGIE59JY789E2,still,5396.8599999998405,tangram,isolated,Y1.jpg,NA,survey-text,11,67995
full_sample,28,35GCEFQ6I6D5794FPUTL827FML73ZL,doctor,7957.389999995939,tangram,isolated,K1.jpg,NA,survey-text,24,247945
full_sample,105,3TR2532VIQJE4DMTQAOXRBV9DEW6J9,prancing,8606.890000024578,tangram,isolated,tangram-48.jpg,NA,survey-text,19,165399
full_sample,29,352YTHGROW24YKNPJMSXI0VG4VMH4U,cape,4573,tangram,isolated,N1.jpg,NA,survey-text,28,261706
full_sample,42,3ZPPDN2SLWLTBG2ZAGGIE59JY789E2,straight,7098.245000000141,tangram,isolated,C2.jpg,NA,survey-text,12,75598
full_sample,28,35GCEFQ6I6D5794FPUTL827FML73ZL,meeting,7106.635000091046,tangram,isolated,tangram-164.jpg,NA,survey-text,25,255555
full_sample,105,3TR2532VIQJE4DMTQAOXRBV9DEW6J9,stealing,7428.690000000643,tangram,isolated,A2.jpg,NA,survey-text,20,173333
full_sample,5,3JMSRU9HQJJR8NF2DHLE6NYGPZREVN,excitement,13357.855000067502,tangram,isolated,E1.jpg,NA,survey-text,16,106156
full_sample,42,3ZPPDN2SLWLTBG2ZAGGIE59JY789E2,fat,4359.995000000708,tangram,isolated,tangram-71.jpg,NA,survey-text,13,80464
full_sample,29,352YTHGROW24YKNPJMSXI0VG4VMH4U,sculpture,8901,tangram,isolated,tangram-142.jpg,NA,survey-text,29,271122
full_sample,28,35GCEFQ6I6D5794FPUTL827FML73ZL,celebration,6461.140000028536,tangram,isolated,tangram-4.jpg,NA,survey-text,26,262531
full_sample,42,3ZPPDN2SLWLTBG2ZAGGIE59JY789E2,jumping,4738.5749999994005,tangram,isolated,F1.jpg,NA,survey-text,14,85707
full_sample,105,3TR2532VIQJE4DMTQAOXRBV9DEW6J9,listening,7824.055000004591,tangram,isolated,tangram-120.jpg,NA,survey-text,21,181676
full_sample,5,3JMSRU9HQJJR8NF2DHLE6NYGPZREVN,strawberry,6362.029999960214,catch,NA,catch_trial.jpg,NA,survey-text,17,113028
full_sample,5,3JMSRU9HQJJR8NF2DHLE6NYGPZREVN,jump,3978.099999949336,tangram,isolated,tangram-8.jpg,NA,survey-text,18,117518
full_sample,42,3ZPPDN2SLWLTBG2ZAGGIE59JY789E2,bending,5480.174999999697,tangram,isolated,K1.jpg,NA,survey-text,15,91691
full_sample,28,35GCEFQ6I6D5794FPUTL827FML73ZL,gathering,9549.18499989435,tangram,isolated,tangram-114.jpg,NA,survey-text,27,272583
full_sample,29,352YTHGROW24YKNPJMSXI0VG4VMH4U,matron,11265,tangram,isolated,tangram-120.jpg,NA,survey-text,30,282898
full_sample,5,3JMSRU9HQJJR8NF2DHLE6NYGPZREVN,dance,2361.97999981232,tangram,isolated,tangram-99.jpg,NA,survey-text,19,120388
full_sample,42,3ZPPDN2SLWLTBG2ZAGGIE59JY789E2,reading,2692.099999999293,tangram,isolated,tangram-4.jpg,NA,survey-text,16,94887
full_sample,5,3JMSRU9HQJJR8NF2DHLE6NYGPZREVN,jump,2624.5399999897927,tangram,isolated,tangram-164.jpg,NA,survey-text,20,123532
full_sample,28,35GCEFQ6I6D5794FPUTL827FML73ZL,ladies,4999.775000032969,tangram,isolated,tangram-146.jpg,NA,survey-text,28,278086
full_sample,5,3JMSRU9HQJJR8NF2DHLE6NYGPZREVN,run,1857.920000096783,tangram,isolated,tangram-81.jpg,NA,survey-text,21,125900
full_sample,42,3ZPPDN2SLWLTBG2ZAGGIE59JY789E2,strawberry,4218.824999999924,catch,NA,catch_trial.jpg,NA,survey-text,17,99610
full_sample,105,3TR2532VIQJE4DMTQAOXRBV9DEW6J9,happy,13794.23499997938,tangram,isolated,tangram-30.jpg,NA,survey-text,22,195984
full_sample,5,3JMSRU9HQJJR8NF2DHLE6NYGPZREVN,run,1759.0149999596179,tangram,isolated,N1.jpg,NA,survey-text,22,128172
full_sample,28,35GCEFQ6I6D5794FPUTL827FML73ZL,men,2439.6249999990687,tangram,isolated,B1.jpg,NA,survey-text,29,281028
full_sample,29,352YTHGROW24YKNPJMSXI0VG4VMH4U,dog,8730,tangram,isolated,tangram-178.jpg,NA,survey-text,31,292138
full_sample,42,3ZPPDN2SLWLTBG2ZAGGIE59JY789E2,leaping,3598.0550000003714,tangram,isolated,tangram-67.jpg,NA,survey-text,18,103715
full_sample,5,3JMSRU9HQJJR8NF2DHLE6NYGPZREVN,stand,2218.540000030771,tangram,isolated,G1.jpg,NA,survey-text,23,130901
full_sample,105,3TR2532VIQJE4DMTQAOXRBV9DEW6J9,swinging,4459.044999995967,tangram,isolated,tangram-119.jpg,NA,survey-text,23,200951
full_sample,28,35GCEFQ6I6D5794FPUTL827FML73ZL,dancing,3471.6349999653175,tangram,isolated,tangram-32.jpg,NA,survey-text,30,285003
full_sample,5,3JMSRU9HQJJR8NF2DHLE6NYGPZREVN,run,1735.4049999266863,tangram,isolated,F1.jpg,NA,survey-text,24,133148
full_sample,5,3JMSRU9HQJJR8NF2DHLE6NYGPZREVN,stand,1749.5300001464784,tangram,isolated,C2.jpg,NA,survey-text,25,135412
full_sample,42,3ZPPDN2SLWLTBG2ZAGGIE59JY789E2,laying,7764.489999999583,tangram,isolated,D1.jpg,NA,survey-text,19,111986
full_sample,28,35GCEFQ6I6D5794FPUTL827FML73ZL,studying,5966.9349999167025,tangram,isolated,tangram-71.jpg,NA,survey-text,31,291474
full_sample,5,3JMSRU9HQJJR8NF2DHLE6NYGPZREVN,chicken,3431.71999999322,tangram,isolated,tangram-155.jpg,NA,survey-text,26,139356
full_sample,5,3JMSRU9HQJJR8NF2DHLE6NYGPZREVN,tree,2905.830000061542,tangram,isolated,tangram-146.jpg,NA,survey-text,27,142772
full_sample,28,35GCEFQ6I6D5794FPUTL827FML73ZL,jogging,3874.874999979511,tangram,isolated,N1.jpg,NA,survey-text,32,295852
full_sample,42,3ZPPDN2SLWLTBG2ZAGGIE59JY789E2,skipping,5447.589999999764,tangram,isolated,tangram-81.jpg,NA,survey-text,20,117939
full_sample,5,3JMSRU9HQJJR8NF2DHLE6NYGPZREVN,jump,1848.1799999717623,tangram,isolated,tangram-53.jpg,NA,survey-text,28,145132
full_sample,105,3TR2532VIQJE4DMTQAOXRBV9DEW6J9,defiant,12612.495000008494,tangram,isolated,tangram-103.jpg,NA,survey-text,24,214069
full_sample,102,3BQU611VFQ9CGKBI250WMR887AS99S,Chicken,35019.77499999339,tangram,isolated,tangram-146.jpg,NA,survey-text,2,51837
full_sample,5,3JMSRU9HQJJR8NF2DHLE6NYGPZREVN,jump,1682.6850001234561,tangram,isolated,tangram-183.jpg,NA,survey-text,29,147324
full_sample,29,352YTHGROW24YKNPJMSXI0VG4VMH4U,hat,17775,tangram,isolated,tangram-71.jpg,NA,survey-text,32,310425
full_sample,42,3ZPPDN2SLWLTBG2ZAGGIE59JY789E2,kneeling,3224.785000000338,tangram,isolated,tangram-87.jpg,NA,survey-text,21,121669
full_sample,5,3JMSRU9HQJJR8NF2DHLE6NYGPZREVN,jump,1626.2699998915195,tangram,isolated,tangram-178.jpg,NA,survey-text,30,149460
full_sample,105,3TR2532VIQJE4DMTQAOXRBV9DEW6J9,nerdy,5564.459999994142,tangram,isolated,H1.jpg,NA,survey-text,25,220138
full_sample,5,3JMSRU9HQJJR8NF2DHLE6NYGPZREVN,jump,1623.4049999620765,tangram,isolated,tangram-140.jpg,NA,survey-text,31,151596
full_sample,5,3JMSRU9HQJJR8NF2DHLE6NYGPZREVN,hill,1879.820000147447,tangram,isolated,M1.jpg,NA,survey-text,32,153989
full_sample,42,3ZPPDN2SLWLTBG2ZAGGIE59JY789E2,jumping,6355.050000000119,tangram,isolated,tangram-90.jpg,NA,survey-text,22,128529
full_sample,105,3TR2532VIQJE4DMTQAOXRBV9DEW6J9,serving,3998.859999992419,tangram,isolated,I1.jpg,NA,survey-text,26,224640
full_sample,42,3ZPPDN2SLWLTBG2ZAGGIE59JY789E2,walking,5292.045000000158,tangram,isolated,B1.jpg,NA,survey-text,23,134325
full_sample,42,3ZPPDN2SLWLTBG2ZAGGIE59JY789E2,jumping,3655.339999999327,tangram,isolated,tangram-119.jpg,NA,survey-text,24,138501
full_sample,105,3TR2532VIQJE4DMTQAOXRBV9DEW6J9,scared,10092.070000013337,tangram,isolated,W1.jpg,NA,survey-text,27,235235
full_sample,42,3ZPPDN2SLWLTBG2ZAGGIE59JY789E2,kicking,2978.530000000319,tangram,isolated,tangram-48.jpg,NA,survey-text,25,141984
full_sample,105,3TR2532VIQJE4DMTQAOXRBV9DEW6J9,bowing,5780.564999993658,tangram,isolated,C1.jpg,NA,survey-text,28,241520
full_sample,42,3ZPPDN2SLWLTBG2ZAGGIE59JY789E2,praising,5081.65499999997,tangram,isolated,tangram-53.jpg,NA,survey-text,26,147570
full_sample,42,3ZPPDN2SLWLTBG2ZAGGIE59JY789E2,walking,4942.885000000388,tangram,isolated,tangram-96.jpg,NA,survey-text,27,153017
full_sample,105,3TR2532VIQJE4DMTQAOXRBV9DEW6J9,stiff,11031.214999995427,tangram,isolated,tangram-64.jpg,NA,survey-text,29,253064
full_sample,42,3ZPPDN2SLWLTBG2ZAGGIE59JY789E2,running,4843.049999999494,tangram,isolated,W1.jpg,NA,survey-text,28,158365
full_sample,42,3ZPPDN2SLWLTBG2ZAGGIE59JY789E2,dancing,2582.1400000004214,tangram,isolated,tangram-99.jpg,NA,survey-text,29,161451
full_sample,105,3TR2532VIQJE4DMTQAOXRBV9DEW6J9,ringing,4264.490000001388,tangram,isolated,tangram-6.jpg,NA,survey-text,30,257845
full_sample,79,3WS1NTTKEZ13L0EI5VHV3CTQ74TF0E,Statue,12528.18500000285,tangram,isolated,tangram-74.jpg,NA,survey-text,2,361023
full_sample,42,3ZPPDN2SLWLTBG2ZAGGIE59JY789E2,bending,4031.074999999866,tangram,isolated,tangram-178.jpg,NA,survey-text,30,165989
full_sample,105,3TR2532VIQJE4DMTQAOXRBV9DEW6J9,starting,6654.374999983702,tangram,isolated,tangram-55.jpg,NA,survey-text,31,265003
full_sample,79,3WS1NTTKEZ13L0EI5VHV3CTQ74TF0E,yoga,5758.069999981672,tangram,isolated,tangram-108.jpg,NA,survey-text,3,367285
full_sample,42,3ZPPDN2SLWLTBG2ZAGGIE59JY789E2,jumping,4270.204999999813,tangram,isolated,L1.jpg,NA,survey-text,31,170764
full_sample,79,3WS1NTTKEZ13L0EI5VHV3CTQ74TF0E,kicking,9184.16999996407,tangram,isolated,tangram-164.jpg,NA,survey-text,4,376977
full_sample,105,3TR2532VIQJE4DMTQAOXRBV9DEW6J9,selling,13574.219999980414,tangram,isolated,tangram-71.jpg,NA,survey-text,32,279081
full_sample,79,3WS1NTTKEZ13L0EI5VHV3CTQ74TF0E,carrying,4155.7449999963865,tangram,isolated,tangram-9.jpg,NA,survey-text,5,381645
full_sample,42,3ZPPDN2SLWLTBG2ZAGGIE59JY789E2,flailing,15204.125000000204,tangram,isolated,tangram-106.jpg,NA,survey-text,32,186474
full_sample,79,3WS1NTTKEZ13L0EI5VHV3CTQ74TF0E,sad,2925.4349999828264,tangram,isolated,B1.jpg,NA,survey-text,6,385077
full_sample,79,3WS1NTTKEZ13L0EI5VHV3CTQ74TF0E,dancing,3900.710000016261,tangram,isolated,tangram-187.jpg,NA,survey-text,7,389493
full_sample,79,3WS1NTTKEZ13L0EI5VHV3CTQ74TF0E,posing,8845.770000014454,tangram,isolated,F1.jpg,NA,survey-text,8,398849
full_sample,79,3WS1NTTKEZ13L0EI5VHV3CTQ74TF0E,yawning,4421.520000032615,tangram,isolated,tangram-96.jpg,NA,survey-text,9,403789
full_sample,34,3S06PH7KSST6U5L4A8Q5TH9F0JJ1DS,man,5982.03499999363,tangram,isolated,R1.jpg,NA,survey-text,2,23174
full_sample,79,3WS1NTTKEZ13L0EI5VHV3CTQ74TF0E,ballet,6937.289999972563,tangram,isolated,tangram-168.jpg,NA,survey-text,10,411229
full_sample,34,3S06PH7KSST6U5L4A8Q5TH9F0JJ1DS,run,3081.3750000088476,tangram,isolated,tangram-178.jpg,NA,survey-text,3,26766
full_sample,79,3WS1NTTKEZ13L0EI5VHV3CTQ74TF0E,standing,3380.8399999979883,tangram,isolated,C2.jpg,NA,survey-text,11,415125
full_sample,34,3S06PH7KSST6U5L4A8Q5TH9F0JJ1DS,running,2371.255000005476,tangram,isolated,tangram-67.jpg,NA,survey-text,4,29646
full_sample,34,3S06PH7KSST6U5L4A8Q5TH9F0JJ1DS,sitting,3263.8549999683164,tangram,isolated,tangram-120.jpg,NA,survey-text,5,33421
full_sample,34,3S06PH7KSST6U5L4A8Q5TH9F0JJ1DS,reading,5440.4799999902025,tangram,isolated,J1.jpg,NA,survey-text,6,39373
full_sample,34,3S06PH7KSST6U5L4A8Q5TH9F0JJ1DS,women,8418.089999991935,tangram,isolated,tangram-111.jpg,NA,survey-text,7,48301
full_sample,34,3S06PH7KSST6U5L4A8Q5TH9F0JJ1DS,judge,14235.539999965113,tangram,isolated,tangram-53.jpg,NA,survey-text,8,63045
full_sample,34,3S06PH7KSST6U5L4A8Q5TH9F0JJ1DS,teen,4003.1299999682233,tangram,isolated,W1.jpg,NA,survey-text,9,67556
full_sample,34,3S06PH7KSST6U5L4A8Q5TH9F0JJ1DS,sad,2266.475000011269,tangram,isolated,C2.jpg,NA,survey-text,10,70332
full_sample,34,3S06PH7KSST6U5L4A8Q5TH9F0JJ1DS,focus,4443.150000006426,tangram,isolated,tangram-108.jpg,NA,survey-text,11,75285
full_sample,34,3S06PH7KSST6U5L4A8Q5TH9F0JJ1DS,run,1490.7050000037998,tangram,isolated,tangram-32.jpg,NA,survey-text,12,77285
full_sample,34,3S06PH7KSST6U5L4A8Q5TH9F0JJ1DS,walk,2171.7049999861047,tangram,isolated,P1.jpg,NA,survey-text,13,79966
full_sample,35,3QHK8ZVMIN7Q5FROPMHII6UTV4CBL1,inspecting,15978.344999981346,tangram,isolated,tangram-6.jpg,NA,survey-text,2,298853
full_sample,34,3S06PH7KSST6U5L4A8Q5TH9F0JJ1DS,costume,6922.505000024103,tangram,isolated,M1.jpg,NA,survey-text,14,87397
full_sample,34,3S06PH7KSST6U5L4A8Q5TH9F0JJ1DS,reading,3401.949999970384,tangram,isolated,tangram-6.jpg,NA,survey-text,15,91309
full_sample,35,3QHK8ZVMIN7Q5FROPMHII6UTV4CBL1,walking,8496.034999989206,tangram,isolated,tangram-96.jpg,NA,survey-text,3,307852
full_sample,34,3S06PH7KSST6U5L4A8Q5TH9F0JJ1DS,stretching,7034.944999963045,tangram,isolated,tangram-168.jpg,NA,survey-text,16,98853
full_sample,35,3QHK8ZVMIN7Q5FROPMHII6UTV4CBL1,running,5251.584999990882,tangram,isolated,R1.jpg,NA,survey-text,4,313605
full_sample,35,3QHK8ZVMIN7Q5FROPMHII6UTV4CBL1,sitting,6539.744999987306,tangram,isolated,tangram-143.jpg,NA,survey-text,5,320647
full_sample,34,3S06PH7KSST6U5L4A8Q5TH9F0JJ1DS,strawberry,10956.795000005513,catch,NA,catch_trial.jpg,NA,survey-text,17,110317
full_sample,35,3QHK8ZVMIN7Q5FROPMHII6UTV4CBL1,running,3667.809999984456,tangram,isolated,N1.jpg,NA,survey-text,6,324818
full_sample,34,3S06PH7KSST6U5L4A8Q5TH9F0JJ1DS,lying,3649.459999985993,tangram,isolated,D1.jpg,NA,survey-text,18,114478
full_sample,34,3S06PH7KSST6U5L4A8Q5TH9F0JJ1DS,run,1586.9950000196695,tangram,isolated,N1.jpg,NA,survey-text,19,116573
full_sample,35,3QHK8ZVMIN7Q5FROPMHII6UTV4CBL1,dancing,4504.829999990761,tangram,isolated,tangram-119.jpg,NA,survey-text,7,329825
full_sample,34,3S06PH7KSST6U5L4A8Q5TH9F0JJ1DS,jumping,4307.484999997541,tangram,isolated,E1.jpg,NA,survey-text,20,121389
full_sample,35,3QHK8ZVMIN7Q5FROPMHII6UTV4CBL1,running,3963.870000006864,tangram,isolated,tangram-55.jpg,NA,survey-text,8,334292
full_sample,35,3QHK8ZVMIN7Q5FROPMHII6UTV4CBL1,throwing,4425.479999976233,tangram,isolated,A2.jpg,NA,survey-text,9,339219
full_sample,34,3S06PH7KSST6U5L4A8Q5TH9F0JJ1DS,diamond,6354.644999955781,tangram,isolated,Y1.jpg,NA,survey-text,21,128253
full_sample,34,3S06PH7KSST6U5L4A8Q5TH9F0JJ1DS,eating,4828.05000001099,tangram,isolated,tangram-179.jpg,NA,survey-text,22,133592
full_sample,35,3QHK8ZVMIN7Q5FROPMHII6UTV4CBL1,kicking,7707.064999995055,tangram,isolated,tangram-164.jpg,NA,survey-text,10,347428
full_sample,35,3QHK8ZVMIN7Q5FROPMHII6UTV4CBL1,dancing,4145.365000003949,tangram,isolated,tangram-187.jpg,NA,survey-text,11,352076
full_sample,34,3S06PH7KSST6U5L4A8Q5TH9F0JJ1DS,waving,6317.970000032801,tangram,isolated,tangram-146.jpg,NA,survey-text,23,140421
full_sample,35,3QHK8ZVMIN7Q5FROPMHII6UTV4CBL1,leaning,5965.459999977611,tangram,isolated,tangram-140.jpg,NA,survey-text,12,358544
full_sample,34,3S06PH7KSST6U5L4A8Q5TH9F0JJ1DS,exposing,6579.969999962486,tangram,isolated,tangram-103.jpg,NA,survey-text,24,147511
full_sample,35,3QHK8ZVMIN7Q5FROPMHII6UTV4CBL1,dancing,4324.024999979883,tangram,isolated,tangram-99.jpg,NA,survey-text,13,363370
full_sample,34,3S06PH7KSST6U5L4A8Q5TH9F0JJ1DS,kicking,3385.604999959469,tangram,isolated,tangram-48.jpg,NA,survey-text,25,151405
full_sample,34,3S06PH7KSST6U5L4A8Q5TH9F0JJ1DS,bending,4737.994999974035,tangram,isolated,tangram-9.jpg,NA,survey-text,26,156653
full_sample,35,3QHK8ZVMIN7Q5FROPMHII6UTV4CBL1,running,5847.1300000092015,tangram,isolated,tangram-67.jpg,NA,survey-text,14,369720
full_sample,34,3S06PH7KSST6U5L4A8Q5TH9F0JJ1DS,jumping,3978.4900000086054,tangram,isolated,tangram-8.jpg,NA,survey-text,27,161141
full_sample,34,3S06PH7KSST6U5L4A8Q5TH9F0JJ1DS,sitting,2879.2400000384077,tangram,isolated,G1.jpg,NA,survey-text,28,164533
full_sample,35,3QHK8ZVMIN7Q5FROPMHII6UTV4CBL1,kicking,8405.594999989262,tangram,isolated,tangram-48.jpg,NA,survey-text,15,378628
full_sample,34,3S06PH7KSST6U5L4A8Q5TH9F0JJ1DS,stand,5090.615000051912,tangram,isolated,tangram-4.jpg,NA,survey-text,29,170133
full_sample,35,3QHK8ZVMIN7Q5FROPMHII6UTV4CBL1,strolling,6028.3049999852665,tangram,isolated,B1.jpg,NA,survey-text,16,385159
full_sample,34,3S06PH7KSST6U5L4A8Q5TH9F0JJ1DS,walk,2435.1499999756925,tangram,isolated,A2.jpg,NA,survey-text,30,173077
full_sample,34,3S06PH7KSST6U5L4A8Q5TH9F0JJ1DS,walk,3410.2399999974295,tangram,isolated,B1.jpg,NA,survey-text,31,176996
full_sample,34,3S06PH7KSST6U5L4A8Q5TH9F0JJ1DS,jump,2835.574999975506,tangram,isolated,O1.jpg,NA,survey-text,32,180341
full_sample,35,3QHK8ZVMIN7Q5FROPMHII6UTV4CBL1,strawberry,10297.420000017155,catch,NA,catch_trial.jpg,NA,survey-text,17,395958
full_sample,35,3QHK8ZVMIN7Q5FROPMHII6UTV4CBL1,jogging,8852.619999990566,tangram,isolated,tangram-90.jpg,NA,survey-text,18,405313
full_sample,35,3QHK8ZVMIN7Q5FROPMHII6UTV4CBL1,standing,3778.5149999835994,tangram,isolated,tangram-44.jpg,NA,survey-text,19,409594
full_sample,35,3QHK8ZVMIN7Q5FROPMHII6UTV4CBL1,throwing,7938.114999997197,tangram,isolated,F1.jpg,NA,survey-text,20,418034
full_sample,35,3QHK8ZVMIN7Q5FROPMHII6UTV4CBL1,presenting,5147.965000011027,tangram,isolated,I1.jpg,NA,survey-text,21,423684
full_sample,35,3QHK8ZVMIN7Q5FROPMHII6UTV4CBL1,throwing,2846.1349999997765,tangram,isolated,tangram-150.jpg,NA,survey-text,22,427033
full_sample,35,3QHK8ZVMIN7Q5FROPMHII6UTV4CBL1,reading,4056.604999990668,tangram,isolated,Y1.jpg,NA,survey-text,23,431592
full_sample,35,3QHK8ZVMIN7Q5FROPMHII6UTV4CBL1,chasing,6663.245000003371,tangram,isolated,W1.jpg,NA,survey-text,24,438758
full_sample,35,3QHK8ZVMIN7Q5FROPMHII6UTV4CBL1,standing,4118.190000008326,tangram,isolated,P1.jpg,NA,survey-text,25,443379
full_sample,35,3QHK8ZVMIN7Q5FROPMHII6UTV4CBL1,leaning,5548.0399999942165,tangram,isolated,tangram-146.jpg,NA,survey-text,26,449429
full_sample,34,3S06PH7KSST6U5L4A8Q5TH9F0JJ1DS,walk,4570.145000005141,tangram,isolated,A1.jpg,NA,survey-text,2,13713
full_sample,34,3S06PH7KSST6U5L4A8Q5TH9F0JJ1DS,run,1790.9599999547936,tangram,isolated,tangram-119.jpg,NA,survey-text,3,16024
full_sample,35,3QHK8ZVMIN7Q5FROPMHII6UTV4CBL1,standing,4638.57999999891,tangram,isolated,tangram-171.jpg,NA,survey-text,27,454569
full_sample,34,3S06PH7KSST6U5L4A8Q5TH9F0JJ1DS,run,1714.5350000355393,tangram,isolated,tangram-67.jpg,NA,survey-text,4,18247
full_sample,35,3QHK8ZVMIN7Q5FROPMHII6UTV4CBL1,standing,2957.45500002522,tangram,isolated,tangram-120.jpg,NA,survey-text,28,458029
full_sample,34,3S06PH7KSST6U5L4A8Q5TH9F0JJ1DS,kicking,4218.105000036303,tangram,isolated,tangram-187.jpg,NA,survey-text,5,22976
full_sample,34,3S06PH7KSST6U5L4A8Q5TH9F0JJ1DS,stand,3540.785000019241,tangram,isolated,tangram-4.jpg,NA,survey-text,6,27032
full_sample,34,3S06PH7KSST6U5L4A8Q5TH9F0JJ1DS,run,2017.5250000320375,tangram,isolated,A2.jpg,NA,survey-text,7,29560
full_sample,35,3QHK8ZVMIN7Q5FROPMHII6UTV4CBL1,handstand,11609.089999983553,tangram,isolated,tangram-4.jpg,NA,survey-text,29,470140
full_sample,34,3S06PH7KSST6U5L4A8Q5TH9F0JJ1DS,sitting,2760.74499997776,tangram,isolated,tangram-164.jpg,NA,survey-text,8,32831
full_sample,35,3QHK8ZVMIN7Q5FROPMHII6UTV4CBL1,catching,4366.594999999506,tangram,isolated,tangram-106.jpg,NA,survey-text,30,475009
full_sample,34,3S06PH7KSST6U5L4A8Q5TH9F0JJ1DS,running,4009.630000044126,tangram,isolated,V1.jpg,NA,survey-text,9,37352
full_sample,34,3S06PH7KSST6U5L4A8Q5TH9F0JJ1DS,walk,3483.345000015106,tangram,isolated,tangram-126.jpg,NA,survey-text,10,41344
full_sample,35,3QHK8ZVMIN7Q5FROPMHII6UTV4CBL1,boating,13852.925000013784,tangram,isolated,D1.jpg,NA,survey-text,31,489364
full_sample,35,3QHK8ZVMIN7Q5FROPMHII6UTV4CBL1,running,2906.3699999824166,tangram,isolated,L1.jpg,NA,survey-text,32,492772
full_sample,34,3S06PH7KSST6U5L4A8Q5TH9F0JJ1DS,ship,13174.869999988005,tangram,isolated,tangram-143.jpg,NA,survey-text,11,55030
full_sample,34,3S06PH7KSST6U5L4A8Q5TH9F0JJ1DS,walk,3768.42499995837,tangram,isolated,tangram-44.jpg,NA,survey-text,12,59310
full_sample,34,3S06PH7KSST6U5L4A8Q5TH9F0JJ1DS,speak,4039.069999998901,tangram,isolated,H1.jpg,NA,survey-text,13,63863
full_sample,34,3S06PH7KSST6U5L4A8Q5TH9F0JJ1DS,sad,2071.315000008326,tangram,isolated,B1.jpg,NA,survey-text,14,66446
full_sample,34,3S06PH7KSST6U5L4A8Q5TH9F0JJ1DS,kick,2478.324999974575,tangram,isolated,tangram-48.jpg,NA,survey-text,15,69438
full_sample,34,3S06PH7KSST6U5L4A8Q5TH9F0JJ1DS,run,1826.070000010077,tangram,isolated,R1.jpg,NA,survey-text,16,71775
full_sample,34,3S06PH7KSST6U5L4A8Q5TH9F0JJ1DS,strawberry,11417.95999999158,catch,NA,catch_trial.jpg,NA,survey-text,17,83702
full_sample,34,3S06PH7KSST6U5L4A8Q5TH9F0JJ1DS,exposing,2930.675000010524,tangram,isolated,tangram-103.jpg,NA,survey-text,18,87143
full_sample,34,3S06PH7KSST6U5L4A8Q5TH9F0JJ1DS,point,5881.050000025425,tangram,isolated,tangram-114.jpg,NA,survey-text,19,93534
full_sample,34,3S06PH7KSST6U5L4A8Q5TH9F0JJ1DS,run,2347.28000004543,tangram,isolated,tangram-81.jpg,NA,survey-text,20,96393
full_sample,34,3S06PH7KSST6U5L4A8Q5TH9F0JJ1DS,lying,4171.899999957532,tangram,isolated,tangram-183.jpg,NA,survey-text,21,101079
full_sample,34,3S06PH7KSST6U5L4A8Q5TH9F0JJ1DS,reading,5619.379999989178,tangram,isolated,J1.jpg,NA,survey-text,22,107207
full_sample,34,3S06PH7KSST6U5L4A8Q5TH9F0JJ1DS,walk,2281.620000023395,tangram,isolated,tangram-146.jpg,NA,survey-text,23,109999
full_sample,34,3S06PH7KSST6U5L4A8Q5TH9F0JJ1DS,run,1500.354999967385,tangram,isolated,tangram-90.jpg,NA,survey-text,24,112009
full_sample,34,3S06PH7KSST6U5L4A8Q5TH9F0JJ1DS,stand,9990.600000019185,tangram,isolated,tangram-53.jpg,NA,survey-text,25,122511
full_sample,34,3S06PH7KSST6U5L4A8Q5TH9F0JJ1DS,walk,2154.4299999950454,tangram,isolated,tangram-171.jpg,NA,survey-text,26,125175
full_sample,34,3S06PH7KSST6U5L4A8Q5TH9F0JJ1DS,pray,3679.615000030026,tangram,isolated,C1.jpg,NA,survey-text,27,129367
full_sample,34,3S06PH7KSST6U5L4A8Q5TH9F0JJ1DS,dance,2385.4149999679066,tangram,isolated,tangram-168.jpg,NA,survey-text,28,132262
full_sample,34,3S06PH7KSST6U5L4A8Q5TH9F0JJ1DS,point,3604.125000012573,tangram,isolated,tangram-96.jpg,NA,survey-text,29,136376
full_sample,34,3S06PH7KSST6U5L4A8Q5TH9F0JJ1DS,eat,2375.6050000083633,tangram,isolated,tangram-179.jpg,NA,survey-text,30,139263
full_sample,34,3S06PH7KSST6U5L4A8Q5TH9F0JJ1DS,give,3337.1050000423566,tangram,isolated,I1.jpg,NA,survey-text,31,143111
full_sample,34,3S06PH7KSST6U5L4A8Q5TH9F0JJ1DS,jump,3466.965000028722,tangram,isolated,tangram-106.jpg,NA,survey-text,32,147095
full_sample,26,3BQU611VFQ9CGKBI250WMR887AS99S,dance,8701.75999996718,tangram,isolated,tangram-32.jpg,NA,survey-text,2,197949
full_sample,26,3BQU611VFQ9CGKBI250WMR887AS99S,run,4449.445000034757,tangram,isolated,tangram-55.jpg,NA,survey-text,3,202928
full_sample,26,3BQU611VFQ9CGKBI250WMR887AS99S,down,8346.98999999091,tangram,isolated,tangram-143.jpg,NA,survey-text,4,211787
full_sample,26,3BQU611VFQ9CGKBI250WMR887AS99S,walk,7816.055000061169,tangram,isolated,tangram-126.jpg,NA,survey-text,5,220177
full_sample,26,3BQU611VFQ9CGKBI250WMR887AS99S,study,10766.644999966957,tangram,isolated,J1.jpg,NA,survey-text,6,231455
full_sample,26,3BQU611VFQ9CGKBI250WMR887AS99S,run,3705.3349999478087,tangram,isolated,N1.jpg,NA,survey-text,7,235673
full_sample,26,3BQU611VFQ9CGKBI250WMR887AS99S,sit,4059.070000075735,tangram,isolated,tangram-87.jpg,NA,survey-text,8,240253
full_sample,26,3BQU611VFQ9CGKBI250WMR887AS99S,stand,4620.140000013635,tangram,isolated,H1.jpg,NA,survey-text,9,245486
full_sample,26,3BQU611VFQ9CGKBI250WMR887AS99S,stop,6443.315000040457,tangram,isolated,tangram-142.jpg,NA,survey-text,10,252550
full_sample,26,3BQU611VFQ9CGKBI250WMR887AS99S,throw,10034.410000080243,tangram,isolated,A2.jpg,NA,survey-text,11,263098
full_sample,82,3X65QVEQI1C9FKJU3MDDTQ0BDPCLCI,dog,5216.619999999239,tangram,isolated,tangram-179.jpg,NA,survey-text,2,18829
full_sample,26,3BQU611VFQ9CGKBI250WMR887AS99S,stand,3791.6399999521673,tangram,isolated,Y1.jpg,NA,survey-text,12,267406
full_sample,82,3X65QVEQI1C9FKJU3MDDTQ0BDPCLCI,man,3048.6049999963143,tangram,isolated,tangram-6.jpg,NA,survey-text,3,22386
full_sample,82,3X65QVEQI1C9FKJU3MDDTQ0BDPCLCI,cat,2854.1800000020885,tangram,isolated,C1.jpg,NA,survey-text,4,25755
full_sample,26,3BQU611VFQ9CGKBI250WMR887AS99S,sleep,6546.730000060052,tangram,isolated,tangram-183.jpg,NA,survey-text,13,274476
full_sample,82,3X65QVEQI1C9FKJU3MDDTQ0BDPCLCI,woman,1488.2399999987683,tangram,isolated,tangram-126.jpg,NA,survey-text,5,27760
full_sample,82,3X65QVEQI1C9FKJU3MDDTQ0BDPCLCI,claw,2864.85000000539,tangram,isolated,tangram-8.jpg,NA,survey-text,6,31143
full_sample,82,3X65QVEQI1C9FKJU3MDDTQ0BDPCLCI,clamp,3455.6999999986147,tangram,isolated,tangram-155.jpg,NA,survey-text,7,35111
full_sample,26,3BQU611VFQ9CGKBI250WMR887AS99S,run,10478.370000026189,tangram,isolated,A1.jpg,NA,survey-text,14,285470
full_sample,82,3X65QVEQI1C9FKJU3MDDTQ0BDPCLCI,dancer,2646.3700000022072,tangram,isolated,tangram-64.jpg,NA,survey-text,8,38274
full_sample,82,3X65QVEQI1C9FKJU3MDDTQ0BDPCLCI,waiter,2111.4900000029593,tangram,isolated,I1.jpg,NA,survey-text,9,40900
full_sample,26,3BQU611VFQ9CGKBI250WMR887AS99S,jump,4355.940000037663,tangram,isolated,tangram-111.jpg,NA,survey-text,15,290347
full_sample,82,3X65QVEQI1C9FKJU3MDDTQ0BDPCLCI,bird,5466.240000001562,tangram,isolated,tangram-140.jpg,NA,survey-text,10,46871
full_sample,26,3BQU611VFQ9CGKBI250WMR887AS99S,fly,4959.955000085756,tangram,isolated,tangram-119.jpg,NA,survey-text,16,295818
full_sample,82,3X65QVEQI1C9FKJU3MDDTQ0BDPCLCI,witch,2497.0250000042142,tangram,isolated,tangram-32.jpg,NA,survey-text,11,49879
full_sample,82,3X65QVEQI1C9FKJU3MDDTQ0BDPCLCI,child,2436.020000001008,tangram,isolated,L1.jpg,NA,survey-text,12,52823
full_sample,26,3BQU611VFQ9CGKBI250WMR887AS99S,strawberry,10218.379999976605,catch,NA,catch_trial.jpg,NA,survey-text,17,306546
full_sample,26,3BQU611VFQ9CGKBI250WMR887AS99S,dance,5394.749999977648,tangram,isolated,tangram-53.jpg,NA,survey-text,18,312455
full_sample,26,3BQU611VFQ9CGKBI250WMR887AS99S,run,3602.1399999735877,tangram,isolated,tangram-99.jpg,NA,survey-text,19,316570
full_sample,26,3BQU611VFQ9CGKBI250WMR887AS99S,down,4061.9949999963865,tangram,isolated,tangram-178.jpg,NA,survey-text,20,321147
full_sample,26,3BQU611VFQ9CGKBI250WMR887AS99S,neel down,6726.13999992609,tangram,isolated,C1.jpg,NA,survey-text,21,328384
full_sample,26,3BQU611VFQ9CGKBI250WMR887AS99S,stand,11768.079999950714,tangram,isolated,tangram-64.jpg,NA,survey-text,22,340663
full_sample,82,3X65QVEQI1C9FKJU3MDDTQ0BDPCLCI,jesus,40888.324999999895,tangram,isolated,tangram-103.jpg,NA,survey-text,13,94215
full_sample,26,3BQU611VFQ9CGKBI250WMR887AS99S,sad,2998.4800000675023,tangram,isolated,B1.jpg,NA,survey-text,23,344269
full_sample,82,3X65QVEQI1C9FKJU3MDDTQ0BDPCLCI,clergy,5377.999999996973,tangram,isolated,tangram-87.jpg,NA,survey-text,14,100097
full_sample,26,3BQU611VFQ9CGKBI250WMR887AS99S,study,3862.9750000545755,tangram,isolated,T1.jpg,NA,survey-text,24,348741
full_sample,82,3X65QVEQI1C9FKJU3MDDTQ0BDPCLCI,skier,3593.1700000001,tangram,isolated,tangram-178.jpg,NA,survey-text,15,104204
full_sample,26,3BQU611VFQ9CGKBI250WMR887AS99S,down,9014.369999989867,tangram,isolated,tangram-9.jpg,NA,survey-text,25,358356
full_sample,82,3X65QVEQI1C9FKJU3MDDTQ0BDPCLCI,player,6514.329999998154,tangram,isolated,tangram-187.jpg,NA,survey-text,16,111234
full_sample,82,3X65QVEQI1C9FKJU3MDDTQ0BDPCLCI,strawberry,5402.529999999388,catch,NA,catch_trial.jpg,NA,survey-text,17,117156
full_sample,26,3BQU611VFQ9CGKBI250WMR887AS99S,roll,7099.780000047758,tangram,isolated,tangram-90.jpg,NA,survey-text,26,365966
full_sample,82,3X65QVEQI1C9FKJU3MDDTQ0BDPCLCI,runner,6051.3799999971525,tangram,isolated,tangram-146.jpg,NA,survey-text,18,123722
full_sample,26,3BQU611VFQ9CGKBI250WMR887AS99S,hiphop,6385.355000034906,tangram,isolated,tangram-4.jpg,NA,survey-text,27,372862
full_sample,82,3X65QVEQI1C9FKJU3MDDTQ0BDPCLCI,robot,5483.000000000175,tangram,isolated,tangram-192.jpg,NA,survey-text,19,129717
full_sample,26,3BQU611VFQ9CGKBI250WMR887AS99S,run,5855.710000032559,tangram,isolated,tangram-67.jpg,NA,survey-text,28,379235
full_sample,26,3BQU611VFQ9CGKBI250WMR887AS99S,dance,3851.3500000117347,tangram,isolated,tangram-192.jpg,NA,survey-text,29,383608
full_sample,82,3X65QVEQI1C9FKJU3MDDTQ0BDPCLCI,statue,6862.2899999973015,tangram,isolated,tangram-142.jpg,NA,survey-text,20,137092
full_sample,26,3BQU611VFQ9CGKBI250WMR887AS99S,run,3355.390000040643,tangram,isolated,L1.jpg,NA,survey-text,30,387477
full_sample,82,3X65QVEQI1C9FKJU3MDDTQ0BDPCLCI,telescope,3687.4800000005052,tangram,isolated,M1.jpg,NA,survey-text,21,141292
full_sample,82,3X65QVEQI1C9FKJU3MDDTQ0BDPCLCI,reader,2677.1850000004633,tangram,isolated,tangram-44.jpg,NA,survey-text,22,144484
full_sample,26,3BQU611VFQ9CGKBI250WMR887AS99S,yoga,6278.249999973923,tangram,isolated,G1.jpg,NA,survey-text,31,394267
full_sample,82,3X65QVEQI1C9FKJU3MDDTQ0BDPCLCI,boxer,5247.035000000324,tangram,isolated,tangram-53.jpg,NA,survey-text,23,150236
full_sample,26,3BQU611VFQ9CGKBI250WMR887AS99S,stand,5219.279999961145,tangram,isolated,P1.jpg,NA,survey-text,32,400003
full_sample,82,3X65QVEQI1C9FKJU3MDDTQ0BDPCLCI,sledder,9356.034999997064,tangram,isolated,tangram-99.jpg,NA,survey-text,24,160100
full_sample,82,3X65QVEQI1C9FKJU3MDDTQ0BDPCLCI,penguin,3012.559999995574,tangram,isolated,D1.jpg,NA,survey-text,25,163617
full_sample,82,3X65QVEQI1C9FKJU3MDDTQ0BDPCLCI,clamp,6613.729999997304,tangram,isolated,tangram-96.jpg,NA,survey-text,26,170742
full_sample,82,3X65QVEQI1C9FKJU3MDDTQ0BDPCLCI,murder,6787.044999997306,tangram,isolated,A2.jpg,NA,survey-text,27,178043
full_sample,82,3X65QVEQI1C9FKJU3MDDTQ0BDPCLCI,runner,2322.905000000901,tangram,isolated,tangram-119.jpg,NA,survey-text,28,180885
full_sample,82,3X65QVEQI1C9FKJU3MDDTQ0BDPCLCI,caroller,4414.434999998775,tangram,isolated,T1.jpg,NA,survey-text,29,185816
full_sample,82,3X65QVEQI1C9FKJU3MDDTQ0BDPCLCI,playwrite,6407.984999998007,tangram,isolated,tangram-90.jpg,NA,survey-text,30,192737
full_sample,82,3X65QVEQI1C9FKJU3MDDTQ0BDPCLCI,penguin,4096.88499999902,tangram,isolated,tangram-106.jpg,NA,survey-text,31,197344
full_sample,82,3X65QVEQI1C9FKJU3MDDTQ0BDPCLCI,murderer,3386.0750000021653,tangram,isolated,tangram-150.jpg,NA,survey-text,32,201239
full_sample,4,388U7OUMF8Q0OQJRWQHPK179ATC0R4,man,13754.434999995283,tangram,isolated,C2.jpg,NA,survey-text,2,79875
full_sample,4,388U7OUMF8Q0OQJRWQHPK179ATC0R4,running,8791.379999995115,tangram,isolated,P1.jpg,NA,survey-text,3,89170
full_sample,4,388U7OUMF8Q0OQJRWQHPK179ATC0R4,excitement,15904.964999994263,tangram,isolated,tangram-30.jpg,NA,survey-text,4,105578
full_sample,4,388U7OUMF8Q0OQJRWQHPK179ATC0R4,throwing,7704.555000003893,tangram,isolated,A2.jpg,NA,survey-text,5,113786
full_sample,4,388U7OUMF8Q0OQJRWQHPK179ATC0R4,hop,13559.944999986328,tangram,isolated,tangram-53.jpg,NA,survey-text,6,127850
full_sample,4,388U7OUMF8Q0OQJRWQHPK179ATC0R4,run,6040.270000012242,tangram,isolated,O1.jpg,NA,survey-text,7,134394
full_sample,4,388U7OUMF8Q0OQJRWQHPK179ATC0R4,waiter,8040.435000002617,tangram,isolated,I1.jpg,NA,survey-text,8,142939
full_sample,4,388U7OUMF8Q0OQJRWQHPK179ATC0R4,kneel,6894.864999994752,tangram,isolated,tangram-87.jpg,NA,survey-text,9,150338
full_sample,4,388U7OUMF8Q0OQJRWQHPK179ATC0R4,catch,4816.295000011451,tangram,isolated,W1.jpg,NA,survey-text,10,155658
full_sample,1,3DPNQGW4LM4O1V38N31TL96QVIE64S,dancer,5534,tangram,isolated,W1.jpg,NA,survey-text,2,57110
full_sample,4,388U7OUMF8Q0OQJRWQHPK179ATC0R4,sprint,5418.520000006538,tangram,isolated,tangram-67.jpg,NA,survey-text,11,161579
full_sample,1,3DPNQGW4LM4O1V38N31TL96QVIE64S,runner,15183,tangram,isolated,tangram-99.jpg,NA,survey-text,3,72811
full_sample,4,388U7OUMF8Q0OQJRWQHPK179ATC0R4,inverted,22240.420000001905,tangram,isolated,tangram-155.jpg,NA,survey-text,12,184322
full_sample,1,3DPNQGW4LM4O1V38N31TL96QVIE64S,woman,11863,tangram,isolated,tangram-146.jpg,NA,survey-text,4,85180
full_sample,4,388U7OUMF8Q0OQJRWQHPK179ATC0R4,jump,13408.80499999912,tangram,isolated,tangram-192.jpg,NA,survey-text,13,198233
full_sample,1,3DPNQGW4LM4O1V38N31TL96QVIE64S,thinker,15292,tangram,isolated,tangram-142.jpg,NA,survey-text,5,100977
full_sample,4,388U7OUMF8Q0OQJRWQHPK179ATC0R4,reaching,7161.804999996093,tangram,isolated,F1.jpg,NA,survey-text,14,205897
full_sample,1,3DPNQGW4LM4O1V38N31TL96QVIE64S,farmer,9960,tangram,isolated,tangram-71.jpg,NA,survey-text,6,111446
full_sample,4,388U7OUMF8Q0OQJRWQHPK179ATC0R4,dance,12969.450000004144,tangram,isolated,tangram-99.jpg,NA,survey-text,15,219369
full_sample,1,3DPNQGW4LM4O1V38N31TL96QVIE64S,prayer,8055,tangram,isolated,tangram-87.jpg,NA,survey-text,7,120006
full_sample,1,3DPNQGW4LM4O1V38N31TL96QVIE64S,sprinter,5268,tangram,isolated,tangram-55.jpg,NA,survey-text,8,125778
full_sample,4,388U7OUMF8Q0OQJRWQHPK179ATC0R4,monster,9359.555000002729,tangram,isolated,tangram-171.jpg,NA,survey-text,16,229232
full_sample,1,3DPNQGW4LM4O1V38N31TL96QVIE64S,walker,6596,tangram,isolated,tangram-44.jpg,NA,survey-text,9,132881
full_sample,1,3DPNQGW4LM4O1V38N31TL96QVIE64S,child,6983,tangram,isolated,V1.jpg,NA,survey-text,10,140377
full_sample,4,388U7OUMF8Q0OQJRWQHPK179ATC0R4,strawberry,15139.519999996992,catch,NA,catch_trial.jpg,NA,survey-text,17,244874
full_sample,1,3DPNQGW4LM4O1V38N31TL96QVIE64S,dog,5644,tangram,isolated,L1.jpg,NA,survey-text,11,146522
full_sample,4,388U7OUMF8Q0OQJRWQHPK179ATC0R4,falling,10392.86500000162,tangram,isolated,tangram-111.jpg,NA,survey-text,18,255770
full_sample,1,3DPNQGW4LM4O1V38N31TL96QVIE64S,judge,8369,tangram,isolated,tangram-6.jpg,NA,survey-text,12,155396
full_sample,48,39L1G8WVWRG8CDJ7HJKTG8N397Z131,comical,8339.489999692887,tangram,isolated,tangram-187.jpg,NA,survey-text,2,38312
full_sample,1,3DPNQGW4LM4O1V38N31TL96QVIE64S,walker,9431,tangram,isolated,tangram-119.jpg,NA,survey-text,13,165336
full_sample,4,388U7OUMF8Q0OQJRWQHPK179ATC0R4,laughing,13072.450000006938,tangram,isolated,D1.jpg,NA,survey-text,19,269346
full_sample,48,39L1G8WVWRG8CDJ7HJKTG8N397Z131,sitting,10031.754999887198,tangram,isolated,tangram-143.jpg,NA,survey-text,3,48849
full_sample,1,3DPNQGW4LM4O1V38N31TL96QVIE64S,kowtow,12984,tangram,isolated,C1.jpg,NA,survey-text,14,178823
full_sample,48,39L1G8WVWRG8CDJ7HJKTG8N397Z131,prayer,5554.150000214577,tangram,isolated,tangram-155.jpg,NA,survey-text,4,54919
full_sample,48,39L1G8WVWRG8CDJ7HJKTG8N397Z131,excited,6162.359999958426,tangram,isolated,V1.jpg,NA,survey-text,5,61587
full_sample,1,3DPNQGW4LM4O1V38N31TL96QVIE64S,breakdancer,11286,tangram,isolated,tangram-192.jpg,NA,survey-text,15,190616
full_sample,48,39L1G8WVWRG8CDJ7HJKTG8N397Z131,studious,5202.399999834597,tangram,isolated,J1.jpg,NA,survey-text,6,67294
full_sample,4,388U7OUMF8Q0OQJRWQHPK179ATC0R4,sport,29984.339999995427,tangram,isolated,tangram-32.jpg,NA,survey-text,20,299834
full_sample,48,39L1G8WVWRG8CDJ7HJKTG8N397Z131,running,4057.73500027135,tangram,isolated,tangram-55.jpg,NA,survey-text,7,71863
full_sample,1,3DPNQGW4LM4O1V38N31TL96QVIE64S,elder,7915,tangram,isolated,tangram-74.jpg,NA,survey-text,16,199038
full_sample,4,388U7OUMF8Q0OQJRWQHPK179ATC0R4,bow,7791.980000009062,tangram,isolated,K1.jpg,NA,survey-text,21,308129
full_sample,48,39L1G8WVWRG8CDJ7HJKTG8N397Z131,kicking,7021.114999894053,tangram,isolated,tangram-48.jpg,NA,survey-text,8,79391
full_sample,1,3DPNQGW4LM4O1V38N31TL96QVIE64S,strawberry,9451,catch,NA,catch_trial.jpg,NA,survey-text,17,209005
full_sample,4,388U7OUMF8Q0OQJRWQHPK179ATC0R4,teacher,6547.189999997499,tangram,isolated,tangram-71.jpg,NA,survey-text,22,315179
full_sample,48,39L1G8WVWRG8CDJ7HJKTG8N397Z131,religious,6066.64999993518,tangram,isolated,tangram-6.jpg,NA,survey-text,9,85961
full_sample,4,388U7OUMF8Q0OQJRWQHPK179ATC0R4,sadness,8445.980000004056,tangram,isolated,B1.jpg,NA,survey-text,23,324129
full_sample,1,3DPNQGW4LM4O1V38N31TL96QVIE64S,zombie,12150,tangram,isolated,T1.jpg,NA,survey-text,18,221658
full_sample,48,39L1G8WVWRG8CDJ7HJKTG8N397Z131,jaws,9932.310000061989,tangram,isolated,tangram-179.jpg,NA,survey-text,10,96399
full_sample,4,388U7OUMF8Q0OQJRWQHPK179ATC0R4,obese,5273.215000008349,tangram,isolated,tangram-142.jpg,NA,survey-text,24,329906
full_sample,1,3DPNQGW4LM4O1V38N31TL96QVIE64S,runner,7298,tangram,isolated,A1.jpg,NA,survey-text,19,229465
full_sample,1,3DPNQGW4LM4O1V38N31TL96QVIE64S,dancer,3616,tangram,isolated,tangram-64.jpg,NA,survey-text,20,233582
full_sample,1,3DPNQGW4LM4O1V38N31TL96QVIE64S,kickboxer,5498,tangram,isolated,tangram-48.jpg,NA,survey-text,21,239588
full_sample,48,39L1G8WVWRG8CDJ7HJKTG8N397Z131,happy,16791.9600000605,tangram,isolated,tangram-119.jpg,NA,survey-text,11,113697
full_sample,4,388U7OUMF8Q0OQJRWQHPK179ATC0R4,rushing,14023.105000000214,tangram,isolated,N1.jpg,NA,survey-text,25,344433
full_sample,48,39L1G8WVWRG8CDJ7HJKTG8N397Z131,focused,5721.549999900162,tangram,isolated,tangram-108.jpg,NA,survey-text,12,119923
full_sample,4,388U7OUMF8Q0OQJRWQHPK179ATC0R4,seal,5728.340000001481,tangram,isolated,tangram-64.jpg,NA,survey-text,26,350666
full_sample,48,39L1G8WVWRG8CDJ7HJKTG8N397Z131,relaxed,8134.025000035763,tangram,isolated,tangram-192.jpg,NA,survey-text,13,128563
full_sample,1,3DPNQGW4LM4O1V38N31TL96QVIE64S,ostrich,16793,tangram,isolated,tangram-140.jpg,NA,survey-text,22,256884
full_sample,4,388U7OUMF8Q0OQJRWQHPK179ATC0R4,pointer,13072.60500000848,tangram,isolated,tangram-96.jpg,NA,survey-text,27,364241
full_sample,48,39L1G8WVWRG8CDJ7HJKTG8N397Z131,leisurely,7728.300000075251,tangram,isolated,tangram-164.jpg,NA,survey-text,14,136797
full_sample,1,3DPNQGW4LM4O1V38N31TL96QVIE64S,monk,6622,tangram,isolated,G1.jpg,NA,survey-text,23,264010
full_sample,48,39L1G8WVWRG8CDJ7HJKTG8N397Z131,prudent,6836.624999996275,tangram,isolated,tangram-126.jpg,NA,survey-text,15,144139
full_sample,4,388U7OUMF8Q0OQJRWQHPK179ATC0R4,directional,16439.76000000839,tangram,isolated,tangram-108.jpg,NA,survey-text,28,381186
full_sample,48,39L1G8WVWRG8CDJ7HJKTG8N397Z131,dominating,13518.050000071526,tangram,isolated,tangram-171.jpg,NA,survey-text,16,158163
full_sample,1,3DPNQGW4LM4O1V38N31TL96QVIE64S,breakdancer,21153,tangram,isolated,tangram-183.jpg,NA,survey-text,24,285672
full_sample,48,39L1G8WVWRG8CDJ7HJKTG8N397Z131,strawberry,7294.754999689758,catch,NA,catch_trial.jpg,NA,survey-text,17,165964
full_sample,1,3DPNQGW4LM4O1V38N31TL96QVIE64S,child,7724,tangram,isolated,tangram-187.jpg,NA,survey-text,25,293902
full_sample,4,388U7OUMF8Q0OQJRWQHPK179ATC0R4,run,15190.715000004275,tangram,isolated,R1.jpg,NA,survey-text,29,396890
full_sample,48,39L1G8WVWRG8CDJ7HJKTG8N397Z131,serving,5535.199999809265,tangram,isolated,I1.jpg,NA,survey-text,18,172015
full_sample,4,388U7OUMF8Q0OQJRWQHPK179ATC0R4,student,4465.184999993653,tangram,isolated,H1.jpg,NA,survey-text,30,401858
full_sample,1,3DPNQGW4LM4O1V38N31TL96QVIE64S,child,5235,tangram,isolated,P1.jpg,NA,survey-text,26,299644
full_sample,1,3DPNQGW4LM4O1V38N31TL96QVIE64S,dog,4037,tangram,isolated,tangram-179.jpg,NA,survey-text,27,304183
full_sample,4,388U7OUMF8Q0OQJRWQHPK179ATC0R4,sit,4788.840000008349,tangram,isolated,G1.jpg,NA,survey-text,31,407242
full_sample,48,39L1G8WVWRG8CDJ7HJKTG8N397Z131,resting,5739.109999965876,tangram,isolated,D1.jpg,NA,survey-text,19,178259
full_sample,1,3DPNQGW4LM4O1V38N31TL96QVIE64S,zombie,4147,tangram,isolated,tangram-108.jpg,NA,survey-text,28,308834
full_sample,48,39L1G8WVWRG8CDJ7HJKTG8N397Z131,jubilant,5658.375000115484,tangram,isolated,tangram-111.jpg,NA,survey-text,20,184423
full_sample,1,3DPNQGW4LM4O1V38N31TL96QVIE64S,diva,6338,tangram,isolated,tangram-103.jpg,NA,survey-text,29,315678
full_sample,48,39L1G8WVWRG8CDJ7HJKTG8N397Z131,steady,5225.529999937862,tangram,isolated,tangram-44.jpg,NA,survey-text,21,190164
full_sample,4,388U7OUMF8Q0OQJRWQHPK179ATC0R4,table,20360.100000005332,tangram,isolated,tangram-9.jpg,NA,survey-text,32,428290
full_sample,1,3DPNQGW4LM4O1V38N31TL96QVIE64S,juror,12350,tangram,isolated,tangram-120.jpg,NA,survey-text,30,328538
full_sample,1,3DPNQGW4LM4O1V38N31TL96QVIE64S,dog,20383,tangram,isolated,tangram-4.jpg,NA,survey-text,31,349426
full_sample,48,39L1G8WVWRG8CDJ7HJKTG8N397Z131,helpful,34147.16499997303,tangram,isolated,K1.jpg,NA,survey-text,22,224817
full_sample,48,39L1G8WVWRG8CDJ7HJKTG8N397Z131,regal,5659.924999810755,tangram,isolated,M1.jpg,NA,survey-text,23,230980
full_sample,1,3DPNQGW4LM4O1V38N31TL96QVIE64S,athlete,13238,tangram,isolated,tangram-8.jpg,NA,survey-text,32,363168
full_sample,48,39L1G8WVWRG8CDJ7HJKTG8N397Z131,poised,5414.520000107586,tangram,isolated,G1.jpg,NA,survey-text,24,236918
full_sample,48,39L1G8WVWRG8CDJ7HJKTG8N397Z131,solid,6228.945000097156,tangram,isolated,tangram-120.jpg,NA,survey-text,25,243652
full_sample,48,39L1G8WVWRG8CDJ7HJKTG8N397Z131,old,5825.484999921173,tangram,isolated,tangram-96.jpg,NA,survey-text,26,249983
full_sample,48,39L1G8WVWRG8CDJ7HJKTG8N397Z131,preening,6577.749999705702,tangram,isolated,tangram-64.jpg,NA,survey-text,27,257079
full_sample,48,39L1G8WVWRG8CDJ7HJKTG8N397Z131,rushing,4334.1649998910725,tangram,isolated,N1.jpg,NA,survey-text,28,261929
full_sample,48,39L1G8WVWRG8CDJ7HJKTG8N397Z131,candle,6099.119999911636,tangram,isolated,tangram-142.jpg,NA,survey-text,29,268535
full_sample,48,39L1G8WVWRG8CDJ7HJKTG8N397Z131,giddy,7206.609999760985,tangram,isolated,tangram-99.jpg,NA,survey-text,30,276247
full_sample,48,39L1G8WVWRG8CDJ7HJKTG8N397Z131,thoughtful,12340.055000036955,tangram,isolated,L1.jpg,NA,survey-text,31,289097
full_sample,48,39L1G8WVWRG8CDJ7HJKTG8N397Z131,celebratory,5200.964999850839,tangram,isolated,tangram-103.jpg,NA,survey-text,32,294805
full_sample,78,35DR22AR5E9G2E40OC50BHR4EL93XO,walk,18209.999999962747,tangram,isolated,P1.jpg,NA,survey-text,2,140233
full_sample,78,35DR22AR5E9G2E40OC50BHR4EL93XO,bird,18410.00000014901,tangram,isolated,tangram-192.jpg,NA,survey-text,3,159150
full_sample,78,35DR22AR5E9G2E40OC50BHR4EL93XO,run,5013.999999966472,tangram,isolated,N1.jpg,NA,survey-text,4,164678
full_sample,78,35DR22AR5E9G2E40OC50BHR4EL93XO,walk,6351.000000024214,tangram,isolated,tangram-119.jpg,NA,survey-text,5,171590
full_sample,78,35DR22AR5E9G2E40OC50BHR4EL93XO,jump,10983.00000000745,tangram,isolated,tangram-8.jpg,NA,survey-text,6,183099
full_sample,78,35DR22AR5E9G2E40OC50BHR4EL93XO,stand,21233.999999938533,tangram,isolated,K1.jpg,NA,survey-text,7,204839
full_sample,78,35DR22AR5E9G2E40OC50BHR4EL93XO,down walk,16258.9999998454,tangram,isolated,tangram-114.jpg,NA,survey-text,8,221599
full_sample,78,35DR22AR5E9G2E40OC50BHR4EL93XO,staning,63519.000000087544,tangram,isolated,tangram-103.jpg,NA,survey-text,9,285625
full_sample,78,35DR22AR5E9G2E40OC50BHR4EL93XO,sit,10388.999999966472,tangram,isolated,tangram-179.jpg,NA,survey-text,10,296517
full_sample,78,35DR22AR5E9G2E40OC50BHR4EL93XO,stand,6739.000000059605,tangram,isolated,tangram-120.jpg,NA,survey-text,11,303781
full_sample,78,35DR22AR5E9G2E40OC50BHR4EL93XO,down stand,16961.00000012666,tangram,isolated,tangram-140.jpg,NA,survey-text,12,321244
full_sample,78,35DR22AR5E9G2E40OC50BHR4EL93XO,walk,4515.999999828637,tangram,isolated,tangram-99.jpg,NA,survey-text,13,326268
full_sample,78,35DR22AR5E9G2E40OC50BHR4EL93XO,walk,7300.000000046566,tangram,isolated,V1.jpg,NA,survey-text,14,334081
full_sample,78,35DR22AR5E9G2E40OC50BHR4EL93XO,stand,10722.000000067055,tangram,isolated,I1.jpg,NA,survey-text,15,345303
full_sample,78,35DR22AR5E9G2E40OC50BHR4EL93XO,sit in yoga,14003.000000026077,tangram,isolated,tangram-87.jpg,NA,survey-text,16,359859
full_sample,75,373ERPL3YPX14ZGIUS5Z4C9E74CRTA,runner,4578,tangram,isolated,tangram-32.jpg,NA,survey-text,2,26674
full_sample,75,373ERPL3YPX14ZGIUS5Z4C9E74CRTA,kneeling,7434,tangram,isolated,C1.jpg,NA,survey-text,3,34614
full_sample,78,35DR22AR5E9G2E40OC50BHR4EL93XO,strawberry,27811.999999918044,catch,NA,catch_trial.jpg,NA,survey-text,17,388179
full_sample,75,373ERPL3YPX14ZGIUS5Z4C9E74CRTA,tripped,4340,tangram,isolated,tangram-183.jpg,NA,survey-text,4,39456
full_sample,75,373ERPL3YPX14ZGIUS5Z4C9E74CRTA,diving,5950,tangram,isolated,tangram-8.jpg,NA,survey-text,5,45910
full_sample,78,35DR22AR5E9G2E40OC50BHR4EL93XO,one leg standing,11892.00000022538,tangram,isolated,tangram-48.jpg,NA,survey-text,18,400576
full_sample,75,373ERPL3YPX14ZGIUS5Z4C9E74CRTA,walking,3472,tangram,isolated,tangram-171.jpg,NA,survey-text,6,49885
full_sample,78,35DR22AR5E9G2E40OC50BHR4EL93XO,stand,6220.999999903142,tangram,isolated,H1.jpg,NA,survey-text,19,407300
full_sample,75,373ERPL3YPX14ZGIUS5Z4C9E74CRTA,dancing,7386,tangram,isolated,tangram-53.jpg,NA,survey-text,7,57775
full_sample,75,373ERPL3YPX14ZGIUS5Z4C9E74CRTA,grabbing,7759,tangram,isolated,tangram-178.jpg,NA,survey-text,8,66040
full_sample,78,35DR22AR5E9G2E40OC50BHR4EL93XO,speed walk,10253.99999995716,tangram,isolated,A2.jpg,NA,survey-text,20,418058
full_sample,78,35DR22AR5E9G2E40OC50BHR4EL93XO,walk slowly,10387.000000104308,tangram,isolated,tangram-44.jpg,NA,survey-text,21,428949
full_sample,75,373ERPL3YPX14ZGIUS5Z4C9E74CRTA,performing,16070,tangram,isolated,tangram-179.jpg,NA,survey-text,9,82616
full_sample,75,373ERPL3YPX14ZGIUS5Z4C9E74CRTA,tapdancing,5466,tangram,isolated,tangram-30.jpg,NA,survey-text,10,88586
full_sample,78,35DR22AR5E9G2E40OC50BHR4EL93XO,walk,12364.000000059605,tangram,isolated,tangram-106.jpg,NA,survey-text,22,441814
full_sample,75,373ERPL3YPX14ZGIUS5Z4C9E74CRTA,ninja,6969,tangram,isolated,N1.jpg,NA,survey-text,11,96060
full_sample,75,373ERPL3YPX14ZGIUS5Z4C9E74CRTA,praying,2796,tangram,isolated,tangram-87.jpg,NA,survey-text,12,99362
full_sample,75,373ERPL3YPX14ZGIUS5Z4C9E74CRTA,skating,4787,tangram,isolated,tangram-81.jpg,NA,survey-text,13,104653
full_sample,78,35DR22AR5E9G2E40OC50BHR4EL93XO,walk speed,14099.999999860302,tangram,isolated,tangram-150.jpg,NA,survey-text,23,456423
full_sample,78,35DR22AR5E9G2E40OC50BHR4EL93XO,stand,5972.000000067055,tangram,isolated,tangram-6.jpg,NA,survey-text,24,462895
full_sample,75,373ERPL3YPX14ZGIUS5Z4C9E74CRTA,breakdance,6937,tangram,isolated,tangram-4.jpg,NA,survey-text,14,112092
full_sample,78,35DR22AR5E9G2E40OC50BHR4EL93XO,run,9767.999999923632,tangram,isolated,W1.jpg,NA,survey-text,25,473177
full_sample,75,373ERPL3YPX14ZGIUS5Z4C9E74CRTA,leaning,9946,tangram,isolated,tangram-140.jpg,NA,survey-text,15,122543
full_sample,75,373ERPL3YPX14ZGIUS5Z4C9E74CRTA,kneel,3584,tangram,isolated,G1.jpg,NA,survey-text,16,126634
full_sample,78,35DR22AR5E9G2E40OC50BHR4EL93XO,running,7504.999999888241,tangram,isolated,O1.jpg,NA,survey-text,26,481187
full_sample,75,373ERPL3YPX14ZGIUS5Z4C9E74CRTA,strawberry,3350,catch,NA,catch_trial.jpg,NA,survey-text,17,130490
full_sample,78,35DR22AR5E9G2E40OC50BHR4EL93XO,run,6838.999999919906,tangram,isolated,L1.jpg,NA,survey-text,27,488545
full_sample,75,373ERPL3YPX14ZGIUS5Z4C9E74CRTA,reading,7496,tangram,isolated,tangram-155.jpg,NA,survey-text,18,138491
full_sample,75,373ERPL3YPX14ZGIUS5Z4C9E74CRTA,rushing,3207,tangram,isolated,F1.jpg,NA,survey-text,19,142201
full_sample,75,373ERPL3YPX14ZGIUS5Z4C9E74CRTA,looking,4137,tangram,isolated,tangram-96.jpg,NA,survey-text,20,146844
full_sample,75,373ERPL3YPX14ZGIUS5Z4C9E74CRTA,waiting,6078,tangram,isolated,tangram-120.jpg,NA,survey-text,21,153429
full_sample,75,373ERPL3YPX14ZGIUS5Z4C9E74CRTA,carrying,5859,tangram,isolated,I1.jpg,NA,survey-text,22,159793
full_sample,75,373ERPL3YPX14ZGIUS5Z4C9E74CRTA,walking,11278,tangram,isolated,tangram-64.jpg,NA,survey-text,23,171575
full_sample,75,373ERPL3YPX14ZGIUS5Z4C9E74CRTA,ponytail,10579,tangram,isolated,tangram-150.jpg,NA,survey-text,24,182658
full_sample,75,373ERPL3YPX14ZGIUS5Z4C9E74CRTA,touching,16743,tangram,isolated,P1.jpg,NA,survey-text,25,199907
full_sample,75,373ERPL3YPX14ZGIUS5Z4C9E74CRTA,playing,4878,tangram,isolated,A1.jpg,NA,survey-text,26,205290
full_sample,75,373ERPL3YPX14ZGIUS5Z4C9E74CRTA,jumping,4644,tangram,isolated,tangram-67.jpg,NA,survey-text,27,210439
full_sample,75,373ERPL3YPX14ZGIUS5Z4C9E74CRTA,thick,4768,tangram,isolated,tangram-44.jpg,NA,survey-text,28,215712
full_sample,75,373ERPL3YPX14ZGIUS5Z4C9E74CRTA,baby,5567,tangram,isolated,tangram-106.jpg,NA,survey-text,29,221785
full_sample,78,35DR22AR5E9G2E40OC50BHR4EL93XO,walk,85870.00000011176,tangram,isolated,tangram-81.jpg,NA,survey-text,28,574921
full_sample,75,373ERPL3YPX14ZGIUS5Z4C9E74CRTA,stretched,7087,tangram,isolated,tangram-90.jpg,NA,survey-text,30,229377
full_sample,78,35DR22AR5E9G2E40OC50BHR4EL93XO,stand,5141.999999992549,tangram,isolated,tangram-171.jpg,NA,survey-text,29,580563
full_sample,75,373ERPL3YPX14ZGIUS5Z4C9E74CRTA,dress,3868,tangram,isolated,tangram-146.jpg,NA,survey-text,31,233749
full_sample,78,35DR22AR5E9G2E40OC50BHR4EL93XO,running,8800.000000046566,tangram,isolated,tangram-67.jpg,NA,survey-text,30,589868
full_sample,78,35DR22AR5E9G2E40OC50BHR4EL93XO,walk,6097.000000067055,tangram,isolated,tangram-146.jpg,NA,survey-text,31,596473
full_sample,75,373ERPL3YPX14ZGIUS5Z4C9E74CRTA,propped,14293,tangram,isolated,tangram-187.jpg,NA,survey-text,32,248547
full_sample,78,35DR22AR5E9G2E40OC50BHR4EL93XO,sit,5808.999999891967,tangram,isolated,tangram-143.jpg,NA,survey-text,32,602808
full_sample,61,3RU7GD8VPPIFDMNOS0WKPCDD43DPSU,aggressive,12986.19000002509,tangram,isolated,tangram-87.jpg,NA,survey-text,2,65778
full_sample,61,3RU7GD8VPPIFDMNOS0WKPCDD43DPSU,fall,5683.834999974351,tangram,isolated,tangram-183.jpg,NA,survey-text,3,71977
full_sample,61,3RU7GD8VPPIFDMNOS0WKPCDD43DPSU,active,6169.88499998115,tangram,isolated,A2.jpg,NA,survey-text,4,78675
full_sample,61,3RU7GD8VPPIFDMNOS0WKPCDD43DPSU,walk,21650.335000013,tangram,isolated,tangram-96.jpg,NA,survey-text,5,100865
full_sample,61,3RU7GD8VPPIFDMNOS0WKPCDD43DPSU,resting,5729.339999961667,tangram,isolated,tangram-120.jpg,NA,survey-text,6,107143
full_sample,61,3RU7GD8VPPIFDMNOS0WKPCDD43DPSU,tumbling,5924.510000040755,tangram,isolated,tangram-8.jpg,NA,survey-text,7,113582
full_sample,61,3RU7GD8VPPIFDMNOS0WKPCDD43DPSU,energetic,9581.810000003316,tangram,isolated,tangram-9.jpg,NA,survey-text,8,123675
full_sample,61,3RU7GD8VPPIFDMNOS0WKPCDD43DPSU,flash,5657.435000000987,tangram,isolated,R1.jpg,NA,survey-text,9,129856
full_sample,61,3RU7GD8VPPIFDMNOS0WKPCDD43DPSU,jogging,4437.145000032615,tangram,isolated,tangram-81.jpg,NA,survey-text,10,134820
full_sample,61,3RU7GD8VPPIFDMNOS0WKPCDD43DPSU,flying,4658.209999965038,tangram,isolated,O1.jpg,NA,survey-text,11,139991
full_sample,61,3RU7GD8VPPIFDMNOS0WKPCDD43DPSU,excited,6448.499999998603,tangram,isolated,tangram-106.jpg,NA,survey-text,12,146957
full_sample,61,3RU7GD8VPPIFDMNOS0WKPCDD43DPSU,thinking,7821.649999998044,tangram,isolated,tangram-74.jpg,NA,survey-text,13,155290
full_sample,61,3RU7GD8VPPIFDMNOS0WKPCDD43DPSU,friendly,13791.680000023916,tangram,isolated,H1.jpg,NA,survey-text,14,169605
full_sample,61,3RU7GD8VPPIFDMNOS0WKPCDD43DPSU,pacing,28830.345000023954,tangram,isolated,tangram-48.jpg,NA,survey-text,15,198959
full_sample,61,3RU7GD8VPPIFDMNOS0WKPCDD43DPSU,flying,3324.865000031423,tangram,isolated,tangram-32.jpg,NA,survey-text,16,202797
full_sample,61,3RU7GD8VPPIFDMNOS0WKPCDD43DPSU,strawberry,20765.814999991562,catch,NA,catch_trial.jpg,NA,survey-text,17,224074
full_sample,61,3RU7GD8VPPIFDMNOS0WKPCDD43DPSU,posture,13639.280000003055,tangram,isolated,K1.jpg,NA,survey-text,18,238229
full_sample,61,3RU7GD8VPPIFDMNOS0WKPCDD43DPSU,tired,5871.6049999929965,tangram,isolated,B1.jpg,NA,survey-text,19,244618
full_sample,61,3RU7GD8VPPIFDMNOS0WKPCDD43DPSU,delighted,7734.990000026301,tangram,isolated,E1.jpg,NA,survey-text,20,252888
full_sample,61,3RU7GD8VPPIFDMNOS0WKPCDD43DPSU,moody,6872.945000010077,tangram,isolated,tangram-140.jpg,NA,survey-text,21,260287
full_sample,61,3RU7GD8VPPIFDMNOS0WKPCDD43DPSU,walk,10420.019999961369,tangram,isolated,tangram-171.jpg,NA,survey-text,22,271227
full_sample,61,3RU7GD8VPPIFDMNOS0WKPCDD43DPSU,dance,3387.6450000097975,tangram,isolated,T1.jpg,NA,survey-text,23,275130
full_sample,61,3RU7GD8VPPIFDMNOS0WKPCDD43DPSU,relaxed,6216.795000014827,tangram,isolated,Y1.jpg,NA,survey-text,24,281868
full_sample,65,337RC3OW06R5ETPUU38IJIO0YX7LVY,man,11677.820000011707,tangram,isolated,O1.jpg,NA,survey-text,2,36774
full_sample,61,3RU7GD8VPPIFDMNOS0WKPCDD43DPSU,happy,18491.394999960903,tangram,isolated,W1.jpg,NA,survey-text,25,300871
full_sample,65,337RC3OW06R5ETPUU38IJIO0YX7LVY,woman,5798.64500000258,tangram,isolated,tangram-146.jpg,NA,survey-text,3,43076
full_sample,61,3RU7GD8VPPIFDMNOS0WKPCDD43DPSU,tumbling,13346.210000046995,tangram,isolated,tangram-168.jpg,NA,survey-text,26,314739
full_sample,65,337RC3OW06R5ETPUU38IJIO0YX7LVY,magician,12230.01500000828,tangram,isolated,tangram-187.jpg,NA,survey-text,4,55815
full_sample,65,337RC3OW06R5ETPUU38IJIO0YX7LVY,athlete,14059.584999995423,tangram,isolated,tangram-168.jpg,NA,survey-text,5,70384
full_sample,65,337RC3OW06R5ETPUU38IJIO0YX7LVY,server,8006.3500000105705,tangram,isolated,I1.jpg,NA,survey-text,6,78899
full_sample,65,337RC3OW06R5ETPUU38IJIO0YX7LVY,kid,7240.730000004987,tangram,isolated,tangram-106.jpg,NA,survey-text,7,86645
full_sample,65,337RC3OW06R5ETPUU38IJIO0YX7LVY,asian,11532.78500000306,tangram,isolated,tangram-96.jpg,NA,survey-text,8,98681
full_sample,61,3RU7GD8VPPIFDMNOS0WKPCDD43DPSU,run,48158.070000004955,tangram,isolated,tangram-178.jpg,NA,survey-text,27,363428
full_sample,61,3RU7GD8VPPIFDMNOS0WKPCDD43DPSU,reading,5747.7599999983795,tangram,isolated,tangram-155.jpg,NA,survey-text,28,369690
full_sample,65,337RC3OW06R5ETPUU38IJIO0YX7LVY,jumper,8755.590000000666,tangram,isolated,tangram-192.jpg,NA,survey-text,9,107940
full_sample,61,3RU7GD8VPPIFDMNOS0WKPCDD43DPSU,fall,6995.56999997003,tangram,isolated,tangram-187.jpg,NA,survey-text,29,377214
full_sample,65,337RC3OW06R5ETPUU38IJIO0YX7LVY,prayer,6986.160000000382,tangram,isolated,C1.jpg,NA,survey-text,10,115433
full_sample,61,3RU7GD8VPPIFDMNOS0WKPCDD43DPSU,jog,11481.214999977965,tangram,isolated,tangram-114.jpg,NA,survey-text,30,389214
full_sample,65,337RC3OW06R5ETPUU38IJIO0YX7LVY,walking,11204.949999999371,tangram,isolated,tangram-126.jpg,NA,survey-text,11,127141
full_sample,61,3RU7GD8VPPIFDMNOS0WKPCDD43DPSU,run,3138.2400000002235,tangram,isolated,L1.jpg,NA,survey-text,31,392868
full_sample,61,3RU7GD8VPPIFDMNOS0WKPCDD43DPSU,alive,7438.160000019707,tangram,isolated,tangram-179.jpg,NA,survey-text,32,400822
full_sample,65,337RC3OW06R5ETPUU38IJIO0YX7LVY,welcome,9844.535000011092,tangram,isolated,K1.jpg,NA,survey-text,12,137489
full_sample,65,337RC3OW06R5ETPUU38IJIO0YX7LVY,woman,9957.240000003367,tangram,isolated,tangram-103.jpg,NA,survey-text,13,147950
full_sample,65,337RC3OW06R5ETPUU38IJIO0YX7LVY,old,41538.87000000395,tangram,isolated,tangram-120.jpg,NA,survey-text,14,189995
full_sample,65,337RC3OW06R5ETPUU38IJIO0YX7LVY,child,95902.30000000156,tangram,isolated,tangram-178.jpg,NA,survey-text,15,286405
full_sample,65,337RC3OW06R5ETPUU38IJIO0YX7LVY,sick,7564.044999991893,tangram,isolated,tangram-74.jpg,NA,survey-text,16,294476
full_sample,65,337RC3OW06R5ETPUU38IJIO0YX7LVY,strawberry,12973.595000003115,catch,NA,catch_trial.jpg,NA,survey-text,17,307959
full_sample,65,337RC3OW06R5ETPUU38IJIO0YX7LVY,sportsman,11274.205000008806,tangram,isolated,tangram-32.jpg,NA,survey-text,18,319736
full_sample,65,337RC3OW06R5ETPUU38IJIO0YX7LVY,dancer,4527.434999996331,tangram,isolated,A1.jpg,NA,survey-text,19,324768
full_sample,65,337RC3OW06R5ETPUU38IJIO0YX7LVY,sad,3302.9200000019046,tangram,isolated,C2.jpg,NA,survey-text,20,328575
full_sample,65,337RC3OW06R5ETPUU38IJIO0YX7LVY,runner,10744.909999993979,tangram,isolated,tangram-99.jpg,NA,survey-text,21,339826
full_sample,65,337RC3OW06R5ETPUU38IJIO0YX7LVY,hug,4565.854999993462,tangram,isolated,tangram-30.jpg,NA,survey-text,22,344898
full_sample,65,337RC3OW06R5ETPUU38IJIO0YX7LVY,dancer,6064.125000004424,tangram,isolated,tangram-53.jpg,NA,survey-text,23,351466
full_sample,65,337RC3OW06R5ETPUU38IJIO0YX7LVY,sitting,4135.744999992312,tangram,isolated,tangram-140.jpg,NA,survey-text,24,356106
full_sample,65,337RC3OW06R5ETPUU38IJIO0YX7LVY,throwing,4622.465000007651,tangram,isolated,tangram-108.jpg,NA,survey-text,25,361234
full_sample,65,337RC3OW06R5ETPUU38IJIO0YX7LVY,sorrowful,7836.40000000014,tangram,isolated,B1.jpg,NA,survey-text,26,369574
full_sample,65,337RC3OW06R5ETPUU38IJIO0YX7LVY,love,18448.459999999614,tangram,isolated,W1.jpg,NA,survey-text,27,388528
full_sample,65,337RC3OW06R5ETPUU38IJIO0YX7LVY,oldman,5103.910000005271,tangram,isolated,tangram-155.jpg,NA,survey-text,28,394136
full_sample,65,337RC3OW06R5ETPUU38IJIO0YX7LVY,animal,8051.115000009304,tangram,isolated,tangram-179.jpg,NA,survey-text,29,402694
full_sample,65,337RC3OW06R5ETPUU38IJIO0YX7LVY,lawyer,20465.71999999287,tangram,isolated,tangram-114.jpg,NA,survey-text,30,423666
full_sample,65,337RC3OW06R5ETPUU38IJIO0YX7LVY,sleeping,5368.405000001076,tangram,isolated,D1.jpg,NA,survey-text,31,429538
full_sample,65,337RC3OW06R5ETPUU38IJIO0YX7LVY,pulling,10109.809999994468,tangram,isolated,tangram-81.jpg,NA,survey-text,32,440152
full_sample,88,3NAPMVF0ZX4X2H2Q2ZNXY89O6FE728,person,17470.4899999997,tangram,isolated,tangram-53.jpg,NA,survey-text,2,40839
full_sample,88,3NAPMVF0ZX4X2H2Q2ZNXY89O6FE728,running,8474.619999999959,tangram,isolated,N1.jpg,NA,survey-text,3,49824
full_sample,88,3NAPMVF0ZX4X2H2Q2ZNXY89O6FE728,dancing,9806.099999999788,tangram,isolated,tangram-99.jpg,NA,survey-text,4,60137
full_sample,80,308Q0PEVB925RL4L6Z69ZK7BQ1XI94,Sunset,6537.724999943748,tangram,isolated,tangram-8.jpg,NA,survey-text,2,25348
full_sample,80,308Q0PEVB925RL4L6Z69ZK7BQ1XI94,Agony,6000.260000117123,tangram,isolated,tangram-155.jpg,NA,survey-text,3,31854
full_sample,80,308Q0PEVB925RL4L6Z69ZK7BQ1XI94,Verbose,5776.945000048727,tangram,isolated,tangram-87.jpg,NA,survey-text,4,38134
full_sample,80,308Q0PEVB925RL4L6Z69ZK7BQ1XI94,Servitude,9105.3949999623,tangram,isolated,I1.jpg,NA,survey-text,5,47746
full_sample,80,308Q0PEVB925RL4L6Z69ZK7BQ1XI94,Sprint,3423.3099999837577,tangram,isolated,V1.jpg,NA,survey-text,6,51672
full_sample,80,308Q0PEVB925RL4L6Z69ZK7BQ1XI94,Shattered,3371.3299999944866,tangram,isolated,tangram-4.jpg,NA,survey-text,7,55552
full_sample,80,308Q0PEVB925RL4L6Z69ZK7BQ1XI94,Strength,28769.68999998644,tangram,isolated,tangram-81.jpg,NA,survey-text,8,84826
full_sample,80,308Q0PEVB925RL4L6Z69ZK7BQ1XI94,Pose,8295.205000089481,tangram,isolated,tangram-44.jpg,NA,survey-text,9,93625
full_sample,80,308Q0PEVB925RL4L6Z69ZK7BQ1XI94,Kick,2027.8799999505281,tangram,isolated,tangram-164.jpg,NA,survey-text,10,96170
full_sample,80,308Q0PEVB925RL4L6Z69ZK7BQ1XI94,Refined,3634.535000193864,tangram,isolated,tangram-90.jpg,NA,survey-text,11,100322
full_sample,80,308Q0PEVB925RL4L6Z69ZK7BQ1XI94,Tumble,14404.859999893233,tangram,isolated,tangram-183.jpg,NA,survey-text,12,115234
full_sample,80,308Q0PEVB925RL4L6Z69ZK7BQ1XI94,Decapitate,6140.409999992698,tangram,isolated,tangram-9.jpg,NA,survey-text,13,121892
full_sample,80,308Q0PEVB925RL4L6Z69ZK7BQ1XI94,Erect,4346.329999854788,tangram,isolated,tangram-71.jpg,NA,survey-text,14,126755
full_sample,80,308Q0PEVB925RL4L6Z69ZK7BQ1XI94,Sitting,9542.23999986425,tangram,isolated,tangram-120.jpg,NA,survey-text,15,136810
full_sample,80,308Q0PEVB925RL4L6Z69ZK7BQ1XI94,Walk,2280.229999916628,tangram,isolated,tangram-171.jpg,NA,survey-text,16,139594
full_sample,80,308Q0PEVB925RL4L6Z69ZK7BQ1XI94,strawberry,2948.7099999096245,catch,NA,catch_trial.jpg,NA,survey-text,17,143057
full_sample,80,308Q0PEVB925RL4L6Z69ZK7BQ1XI94,Trip,7715.219999896362,tangram,isolated,J1.jpg,NA,survey-text,18,151290
full_sample,80,308Q0PEVB925RL4L6Z69ZK7BQ1XI94,Pray,3981.1000002082437,tangram,isolated,tangram-143.jpg,NA,survey-text,19,155778
full_sample,80,308Q0PEVB925RL4L6Z69ZK7BQ1XI94,Folded,39369.44500007667,tangram,isolated,tangram-74.jpg,NA,survey-text,20,195657
full_sample,80,308Q0PEVB925RL4L6Z69ZK7BQ1XI94,Jester,6138.920000055805,tangram,isolated,tangram-114.jpg,NA,survey-text,21,202305
full_sample,80,308Q0PEVB925RL4L6Z69ZK7BQ1XI94,Prance,16673.149999929592,tangram,isolated,O1.jpg,NA,survey-text,22,219481
full_sample,80,308Q0PEVB925RL4L6Z69ZK7BQ1XI94,Jog,15547.755000181496,tangram,isolated,W1.jpg,NA,survey-text,23,235842
full_sample,80,308Q0PEVB925RL4L6Z69ZK7BQ1XI94,Dancing,3472.3999998532236,tangram,isolated,tangram-179.jpg,NA,survey-text,24,239818
full_sample,80,308Q0PEVB925RL4L6Z69ZK7BQ1XI94,Sprint,11769.650000147521,tangram,isolated,N1.jpg,NA,survey-text,25,252090
full_sample,80,308Q0PEVB925RL4L6Z69ZK7BQ1XI94,regal,2638.434999855235,tangram,isolated,tangram-146.jpg,NA,survey-text,26,255241
full_sample,80,308Q0PEVB925RL4L6Z69ZK7BQ1XI94,royal,2792.484999867156,tangram,isolated,A1.jpg,NA,survey-text,27,258538
full_sample,80,308Q0PEVB925RL4L6Z69ZK7BQ1XI94,Twirl,18770.340000046417,tangram,isolated,tangram-106.jpg,NA,survey-text,28,277818
full_sample,80,308Q0PEVB925RL4L6Z69ZK7BQ1XI94,Obese,4983.585000038147,tangram,isolated,tangram-142.jpg,NA,survey-text,29,283306
full_sample,80,308Q0PEVB925RL4L6Z69ZK7BQ1XI94,Charge,2004.539999878034,tangram,isolated,R1.jpg,NA,survey-text,30,285826
full_sample,80,308Q0PEVB925RL4L6Z69ZK7BQ1XI94,Bent,1762.3750001657754,tangram,isolated,K1.jpg,NA,survey-text,31,288090
full_sample,80,308Q0PEVB925RL4L6Z69ZK7BQ1XI94,Happy,4182.395000010729,tangram,isolated,tangram-53.jpg,NA,survey-text,32,292786
full_sample,45,379J5II41P5OCI38ZDJ8JE0EY29ELQ,triangel,5311.294999904931,tangram,isolated,tangram-90.jpg,NA,survey-text,2,12709
full_sample,45,379J5II41P5OCI38ZDJ8JE0EY29ELQ,dress,2778.3500000368804,tangram,isolated,tangram-103.jpg,NA,survey-text,3,16016
full_sample,45,379J5II41P5OCI38ZDJ8JE0EY29ELQ,tower,2006.705000065267,tangram,isolated,M1.jpg,NA,survey-text,4,18532
full_sample,45,379J5II41P5OCI38ZDJ8JE0EY29ELQ,man,1312.995000043884,tangram,isolated,C1.jpg,NA,survey-text,5,20354
full_sample,45,379J5II41P5OCI38ZDJ8JE0EY29ELQ,horse,1323.8999999593943,tangram,isolated,tangram-114.jpg,NA,survey-text,6,22185
full_sample,45,379J5II41P5OCI38ZDJ8JE0EY29ELQ,csr,1172.0050000585616,tangram,isolated,D1.jpg,NA,survey-text,7,23870
full_sample,45,379J5II41P5OCI38ZDJ8JE0EY29ELQ,man,1993.8050000928342,tangram,isolated,H1.jpg,NA,survey-text,8,26389
full_sample,45,379J5II41P5OCI38ZDJ8JE0EY29ELQ,dog,1797.5749999750406,tangram,isolated,tangram-179.jpg,NA,survey-text,9,28701
full_sample,45,379J5II41P5OCI38ZDJ8JE0EY29ELQ,woman,1563.6599999852479,tangram,isolated,tangram-126.jpg,NA,survey-text,10,30791
full_sample,45,379J5II41P5OCI38ZDJ8JE0EY29ELQ,cat,1028.7250000983477,tangram,isolated,T1.jpg,NA,survey-text,11,32333
full_sample,45,379J5II41P5OCI38ZDJ8JE0EY29ELQ,man,2116.6749999392778,tangram,isolated,tangram-171.jpg,NA,survey-text,12,34955
full_sample,45,379J5II41P5OCI38ZDJ8JE0EY29ELQ,man,1097.330000018701,tangram,isolated,A1.jpg,NA,survey-text,13,36562
full_sample,45,379J5II41P5OCI38ZDJ8JE0EY29ELQ,man,975.6700000725687,tangram,isolated,tangram-142.jpg,NA,survey-text,14,38042
full_sample,45,379J5II41P5OCI38ZDJ8JE0EY29ELQ,man,937.6199999824166,tangram,isolated,tangram-140.jpg,NA,survey-text,15,39488
full_sample,45,379J5II41P5OCI38ZDJ8JE0EY29ELQ,man,874.3400000967085,tangram,isolated,O1.jpg,NA,survey-text,16,40868
full_sample,45,379J5II41P5OCI38ZDJ8JE0EY29ELQ,strawberry,3701.5199998859316,catch,NA,catch_trial.jpg,NA,survey-text,17,45076
full_sample,45,379J5II41P5OCI38ZDJ8JE0EY29ELQ,man,680.7199998293072,tangram,isolated,tangram-32.jpg,NA,survey-text,18,46268
full_sample,45,379J5II41P5OCI38ZDJ8JE0EY29ELQ,man,721.8750000465661,tangram,isolated,N1.jpg,NA,survey-text,19,47498
full_sample,45,379J5II41P5OCI38ZDJ8JE0EY29ELQ,man,811.9350001215935,tangram,isolated,tangram-9.jpg,NA,survey-text,20,48814
full_sample,45,379J5II41P5OCI38ZDJ8JE0EY29ELQ,man,747.2499997820705,tangram,isolated,tangram-187.jpg,NA,survey-text,21,50076
full_sample,45,379J5II41P5OCI38ZDJ8JE0EY29ELQ,man,610.4150000028312,tangram,isolated,tangram-120.jpg,NA,survey-text,22,51195
full_sample,45,379J5II41P5OCI38ZDJ8JE0EY29ELQ,man,986.8850000202656,tangram,isolated,tangram-71.jpg,NA,survey-text,23,52688
full_sample,45,379J5II41P5OCI38ZDJ8JE0EY29ELQ,man,686.2399999517947,tangram,isolated,tangram-44.jpg,NA,survey-text,24,53886
full_sample,45,379J5II41P5OCI38ZDJ8JE0EY29ELQ,man,679.6099999919534,tangram,isolated,tangram-146.jpg,NA,survey-text,25,55078
full_sample,45,379J5II41P5OCI38ZDJ8JE0EY29ELQ,man,759.6249999478459,tangram,isolated,K1.jpg,NA,survey-text,26,56344
full_sample,45,379J5II41P5OCI38ZDJ8JE0EY29ELQ,man,661.4400001708418,tangram,isolated,E1.jpg,NA,survey-text,27,57514
full_sample,45,379J5II41P5OCI38ZDJ8JE0EY29ELQ,man,911.054999800399,tangram,isolated,P1.jpg,NA,survey-text,28,58932
full_sample,45,379J5II41P5OCI38ZDJ8JE0EY29ELQ,man,755.5849999189377,tangram,isolated,tangram-81.jpg,NA,survey-text,29,60197
full_sample,45,379J5II41P5OCI38ZDJ8JE0EY29ELQ,sit,1303.804999915883,tangram,isolated,tangram-143.jpg,NA,survey-text,30,62007
full_sample,45,379J5II41P5OCI38ZDJ8JE0EY29ELQ,man,628.410000121221,tangram,isolated,tangram-8.jpg,NA,survey-text,31,63144
full_sample,45,379J5II41P5OCI38ZDJ8JE0EY29ELQ,man,432.33999982476234,tangram,isolated,tangram-53.jpg,NA,survey-text,32,64082
full_sample,60,3QUO65DNQVDD7Z3R25E5FDQBFVLUOH,Very nice,11530.08999954909,tangram,isolated,tangram-120.jpg,NA,survey-text,2,28839
full_sample,60,3QUO65DNQVDD7Z3R25E5FDQBFVLUOH,Very nice,3588.699999731034,tangram,isolated,P1.jpg,NA,survey-text,3,32935
full_sample,60,3QUO65DNQVDD7Z3R25E5FDQBFVLUOH,Very nice,2365.110000129789,tangram,isolated,tangram-142.jpg,NA,survey-text,4,35806
full_sample,60,3QUO65DNQVDD7Z3R25E5FDQBFVLUOH,Very nice,2405.915000010282,tangram,isolated,I1.jpg,NA,survey-text,5,38718
full_sample,60,3QUO65DNQVDD7Z3R25E5FDQBFVLUOH,Very nice,2031.579999718815,tangram,isolated,K1.jpg,NA,survey-text,6,41255
full_sample,60,3QUO65DNQVDD7Z3R25E5FDQBFVLUOH,Very nice,2012.4750002287328,tangram,isolated,tangram-114.jpg,NA,survey-text,7,43773
full_sample,60,3QUO65DNQVDD7Z3R25E5FDQBFVLUOH,Very nice,1885.505000129342,tangram,isolated,tangram-9.jpg,NA,survey-text,8,46165
full_sample,60,3QUO65DNQVDD7Z3R25E5FDQBFVLUOH,Very nice,2423.1599997729063,tangram,isolated,tangram-106.jpg,NA,survey-text,9,49094
full_sample,60,3QUO65DNQVDD7Z3R25E5FDQBFVLUOH,Very nice,2468.1850001215935,tangram,isolated,tangram-168.jpg,NA,survey-text,10,52069
full_sample,60,3QUO65DNQVDD7Z3R25E5FDQBFVLUOH,Very nice,2683.7550001218915,tangram,isolated,tangram-81.jpg,NA,survey-text,11,55260
full_sample,60,3QUO65DNQVDD7Z3R25E5FDQBFVLUOH,Very nice,3246.0000002756715,tangram,isolated,tangram-6.jpg,NA,survey-text,12,59015
full_sample,60,3QUO65DNQVDD7Z3R25E5FDQBFVLUOH,Very nice,2437.665000092238,tangram,isolated,tangram-71.jpg,NA,survey-text,13,61959
full_sample,60,3QUO65DNQVDD7Z3R25E5FDQBFVLUOH,Very nice,2908.989999908954,tangram,isolated,A2.jpg,NA,survey-text,14,65374
full_sample,60,3QUO65DNQVDD7Z3R25E5FDQBFVLUOH,Very nice,2525.8300001733005,tangram,isolated,tangram-4.jpg,NA,survey-text,15,68406
full_sample,60,3QUO65DNQVDD7Z3R25E5FDQBFVLUOH,Very nice,4149.960000067949,tangram,isolated,tangram-171.jpg,NA,survey-text,16,73062
full_sample,60,3QUO65DNQVDD7Z3R25E5FDQBFVLUOH,Strawberry,135094.94500001892,catch,NA,catch_trial.jpg,NA,survey-text,17,208668
full_sample,60,3QUO65DNQVDD7Z3R25E5FDQBFVLUOH,Very nice,4633.100000210106,tangram,isolated,tangram-111.jpg,NA,survey-text,18,213809
full_sample,60,3QUO65DNQVDD7Z3R25E5FDQBFVLUOH,Very nice,2811.1049998551607,tangram,isolated,tangram-48.jpg,NA,survey-text,19,217127
full_sample,60,3QUO65DNQVDD7Z3R25E5FDQBFVLUOH,Very nice,2077.3800001479685,tangram,isolated,tangram-103.jpg,NA,survey-text,20,219710
full_sample,60,3QUO65DNQVDD7Z3R25E5FDQBFVLUOH,Very nice,2093.0649996735156,tangram,isolated,B1.jpg,NA,survey-text,21,222311
full_sample,60,3QUO65DNQVDD7Z3R25E5FDQBFVLUOH,Very nice,2119.3949999287724,tangram,isolated,R1.jpg,NA,survey-text,22,224935
full_sample,60,3QUO65DNQVDD7Z3R25E5FDQBFVLUOH,Very nice,2622.6599998772144,tangram,isolated,tangram-87.jpg,NA,survey-text,23,228063
full_sample,60,3QUO65DNQVDD7Z3R25E5FDQBFVLUOH,Very nice,2365.5900000594556,tangram,isolated,C2.jpg,NA,survey-text,24,230935
full_sample,60,3QUO65DNQVDD7Z3R25E5FDQBFVLUOH,Very nice,5021.350000053644,tangram,isolated,tangram-55.jpg,NA,survey-text,25,236462
full_sample,60,3QUO65DNQVDD7Z3R25E5FDQBFVLUOH,Very nice,3078.3400000073016,tangram,isolated,O1.jpg,NA,survey-text,26,240046
full_sample,60,3QUO65DNQVDD7Z3R25E5FDQBFVLUOH,Very nice,2157.634999603033,tangram,isolated,tangram-192.jpg,NA,survey-text,27,242709
full_sample,60,3QUO65DNQVDD7Z3R25E5FDQBFVLUOH,Very nice,1939.5600003190339,tangram,isolated,tangram-74.jpg,NA,survey-text,28,245157
full_sample,60,3QUO65DNQVDD7Z3R25E5FDQBFVLUOH,Very nice,2157.4450000189245,tangram,isolated,tangram-146.jpg,NA,survey-text,29,247825
full_sample,60,3QUO65DNQVDD7Z3R25E5FDQBFVLUOH,Very nice,2709.9649999290705,tangram,isolated,tangram-119.jpg,NA,survey-text,30,251041
full_sample,60,3QUO65DNQVDD7Z3R25E5FDQBFVLUOH,Very nice,4398.174999747425,tangram,isolated,L1.jpg,NA,survey-text,31,255945
full_sample,60,3QUO65DNQVDD7Z3R25E5FDQBFVLUOH,Very nice,6317.1450002118945,tangram,isolated,tangram-32.jpg,NA,survey-text,32,262768
full_sample,49,36PW28KO40L7GZC42MUIA0K34QREAP,person,9407.845000037923,tangram,isolated,tangram-114.jpg,NA,survey-text,2,20818
full_sample,49,36PW28KO40L7GZC42MUIA0K34QREAP,person,5954.180000000633,tangram,isolated,tangram-142.jpg,NA,survey-text,3,27284
full_sample,49,36PW28KO40L7GZC42MUIA0K34QREAP,man,3552.5800000177696,tangram,isolated,tangram-126.jpg,NA,survey-text,4,31342
full_sample,49,36PW28KO40L7GZC42MUIA0K34QREAP,man,2698.9850000245497,tangram,isolated,tangram-99.jpg,NA,survey-text,5,34544
full_sample,49,36PW28KO40L7GZC42MUIA0K34QREAP,man,3045.2450000448152,tangram,isolated,P1.jpg,NA,survey-text,6,38095
full_sample,49,36PW28KO40L7GZC42MUIA0K34QREAP,man,4739.140000077896,tangram,isolated,tangram-44.jpg,NA,survey-text,7,43337
full_sample,49,36PW28KO40L7GZC42MUIA0K34QREAP,hawk,6479.969999985769,tangram,isolated,tangram-192.jpg,NA,survey-text,8,50321
full_sample,49,36PW28KO40L7GZC42MUIA0K34QREAP,man,6922.525000059977,tangram,isolated,L1.jpg,NA,survey-text,9,57753
full_sample,49,36PW28KO40L7GZC42MUIA0K34QREAP,man,2884.6250000642613,tangram,isolated,T1.jpg,NA,survey-text,10,61143
full_sample,49,36PW28KO40L7GZC42MUIA0K34QREAP,woman,3853.59499999322,tangram,isolated,tangram-64.jpg,NA,survey-text,11,65501
full_sample,49,36PW28KO40L7GZC42MUIA0K34QREAP,man,2631.539999973029,tangram,isolated,tangram-53.jpg,NA,survey-text,12,68638
full_sample,49,36PW28KO40L7GZC42MUIA0K34QREAP,man,2552.9399999650195,tangram,isolated,tangram-96.jpg,NA,survey-text,13,71695
full_sample,49,36PW28KO40L7GZC42MUIA0K34QREAP,man,2137.9899999592453,tangram,isolated,tangram-32.jpg,NA,survey-text,14,74339
full_sample,49,36PW28KO40L7GZC42MUIA0K34QREAP,woman,3125.495000043884,tangram,isolated,tangram-103.jpg,NA,survey-text,15,77972
full_sample,49,36PW28KO40L7GZC42MUIA0K34QREAP,man,2736.254999996163,tangram,isolated,tangram-90.jpg,NA,survey-text,16,81215
full_sample,49,36PW28KO40L7GZC42MUIA0K34QREAP,strawberry,8899.02000001166,catch,NA,catch_trial.jpg,NA,survey-text,17,90618
full_sample,49,36PW28KO40L7GZC42MUIA0K34QREAP,man,3301.9149999599904,tangram,isolated,tangram-119.jpg,NA,survey-text,18,94429
full_sample,49,36PW28KO40L7GZC42MUIA0K34QREAP,man,3286.575000034645,tangram,isolated,I1.jpg,NA,survey-text,19,98222
full_sample,49,36PW28KO40L7GZC42MUIA0K34QREAP,man,3063.5449999244884,tangram,isolated,tangram-106.jpg,NA,survey-text,20,101789
full_sample,49,36PW28KO40L7GZC42MUIA0K34QREAP,person,4298.130000010133,tangram,isolated,tangram-155.jpg,NA,survey-text,21,106596
full_sample,49,36PW28KO40L7GZC42MUIA0K34QREAP,man,2353.4750000108033,tangram,isolated,H1.jpg,NA,survey-text,22,109457
full_sample,49,36PW28KO40L7GZC42MUIA0K34QREAP,man,2333.9100000448525,tangram,isolated,A1.jpg,NA,survey-text,23,112297
full_sample,49,36PW28KO40L7GZC42MUIA0K34QREAP,woman,3192.10500002373,tangram,isolated,tangram-87.jpg,NA,survey-text,24,115997
full_sample,49,36PW28KO40L7GZC42MUIA0K34QREAP,man,3060.7900000177324,tangram,isolated,E1.jpg,NA,survey-text,25,119564
full_sample,49,36PW28KO40L7GZC42MUIA0K34QREAP,person,5665.084999985993,tangram,isolated,G1.jpg,NA,survey-text,26,125734
full_sample,49,36PW28KO40L7GZC42MUIA0K34QREAP,person,2765.5249999370426,tangram,isolated,tangram-140.jpg,NA,survey-text,27,129003
full_sample,49,36PW28KO40L7GZC42MUIA0K34QREAP,woman,2958.0549999373034,tangram,isolated,tangram-30.jpg,NA,survey-text,28,132464
full_sample,49,36PW28KO40L7GZC42MUIA0K34QREAP,man,3161.424999940209,tangram,isolated,C1.jpg,NA,survey-text,29,136137
full_sample,49,36PW28KO40L7GZC42MUIA0K34QREAP,man,2148.1149999890476,tangram,isolated,tangram-48.jpg,NA,survey-text,30,138790
full_sample,49,36PW28KO40L7GZC42MUIA0K34QREAP,man,2753.305000020191,tangram,isolated,tangram-81.jpg,NA,survey-text,31,142050
full_sample,49,36PW28KO40L7GZC42MUIA0K34QREAP,reading,9887.130000046454,tangram,isolated,J1.jpg,NA,survey-text,32,152445
full_sample,15,3D4CH1LGEBIRVUYQGB66E8UVBRKG9V,good,8071.679999993648,tangram,isolated,tangram-74.jpg,NA,survey-text,2,30441
full_sample,106,3DR23U6WE63CVVBD8MLZ55AVSI8TER,walking,3597.3249999806285,tangram,isolated,tangram-96.jpg,NA,survey-text,2,36541
full_sample,106,3DR23U6WE63CVVBD8MLZ55AVSI8TER,running,3125.304999994114,tangram,isolated,tangram-90.jpg,NA,survey-text,3,40173
full_sample,15,3D4CH1LGEBIRVUYQGB66E8UVBRKG9V,nice,9938.689999995404,tangram,isolated,M1.jpg,NA,survey-text,3,40883
full_sample,38,3GD6L00D3TM9YZRHN1P8C7W9918M10,fall,6796.685000001162,tangram,isolated,tangram-8.jpg,NA,survey-text,2,16327
full_sample,103,30MVJZJNHN21MWOROHR9BLMB3J1J92,Jumping,5278,tangram,isolated,J1.jpg,NA,survey-text,2,16321
full_sample,106,3DR23U6WE63CVVBD8MLZ55AVSI8TER,study,4278.615000017453,tangram,isolated,tangram-6.jpg,NA,survey-text,4,44966
full_sample,38,3GD6L00D3TM9YZRHN1P8C7W9918M10,jog,4657.329999998183,tangram,isolated,tangram-111.jpg,NA,survey-text,3,21491
full_sample,38,3GD6L00D3TM9YZRHN1P8C7W9918M10,kick,2724.435000000085,tangram,isolated,tangram-48.jpg,NA,survey-text,4,24722
full_sample,106,3DR23U6WE63CVVBD8MLZ55AVSI8TER,falling,4790.225000004284,tangram,isolated,E1.jpg,NA,survey-text,5,50264
full_sample,103,30MVJZJNHN21MWOROHR9BLMB3J1J92,Grabbing,6757,tangram,isolated,tangram-106.jpg,NA,survey-text,3,23601
full_sample,38,3GD6L00D3TM9YZRHN1P8C7W9918M10,run,2560.894999998709,tangram,isolated,R1.jpg,NA,survey-text,5,27790
full_sample,15,3D4CH1LGEBIRVUYQGB66E8UVBRKG9V,sad,13165.460000003804,tangram,isolated,G1.jpg,NA,survey-text,4,54554
full_sample,103,30MVJZJNHN21MWOROHR9BLMB3J1J92,Skipping,4642,tangram,isolated,A1.jpg,NA,survey-text,4,28754
full_sample,38,3GD6L00D3TM9YZRHN1P8C7W9918M10,walk,3192.7600000017264,tangram,isolated,tangram-119.jpg,NA,survey-text,6,31490
full_sample,106,3DR23U6WE63CVVBD8MLZ55AVSI8TER,standing,6970.525000011548,tangram,isolated,H1.jpg,NA,survey-text,6,57751
full_sample,98,336YQZE83W38MHS0OORKFX9QLHDM5I,kicking,7666.424999944866,tangram,isolated,tangram-183.jpg,NA,survey-text,2,20570
full_sample,103,30MVJZJNHN21MWOROHR9BLMB3J1J92,Dancing,4569,tangram,isolated,W1.jpg,NA,survey-text,5,33849
full_sample,38,3GD6L00D3TM9YZRHN1P8C7W9918M10,dance,3791.320000000269,tangram,isolated,tangram-90.jpg,NA,survey-text,7,35788
full_sample,15,3D4CH1LGEBIRVUYQGB66E8UVBRKG9V,tool,7419.510000006994,tangram,isolated,H1.jpg,NA,survey-text,5,62479
full_sample,98,336YQZE83W38MHS0OORKFX9QLHDM5I,throwing,3789.989999961108,tangram,isolated,tangram-150.jpg,NA,survey-text,3,24861
full_sample,106,3DR23U6WE63CVVBD8MLZ55AVSI8TER,cheering,5510.624999995343,tangram,isolated,tangram-53.jpg,NA,survey-text,7,63776
full_sample,38,3GD6L00D3TM9YZRHN1P8C7W9918M10,stand,2573.905000001105,tangram,isolated,C2.jpg,NA,survey-text,8,38869
full_sample,103,30MVJZJNHN21MWOROHR9BLMB3J1J92,Serving,4220,tangram,isolated,I1.jpg,NA,survey-text,6,38585
full_sample,38,3GD6L00D3TM9YZRHN1P8C7W9918M10,serve,2928.6949999986973,tangram,isolated,I1.jpg,NA,survey-text,9,42301
full_sample,98,336YQZE83W38MHS0OORKFX9QLHDM5I,squatting,3798.5149999149144,tangram,isolated,tangram-140.jpg,NA,survey-text,4,29171
full_sample,106,3DR23U6WE63CVVBD8MLZ55AVSI8TER,sprinting,3722.08999999566,tangram,isolated,tangram-55.jpg,NA,survey-text,8,68000
full_sample,15,3D4CH1LGEBIRVUYQGB66E8UVBRKG9V,stand,5049.864999993588,tangram,isolated,Y1.jpg,NA,survey-text,6,68033
full_sample,71,3HUTX6F6VVC4NNUPJL4Z9UVJW71O2Y,person,5085.709999999381,tangram,isolated,E1.jpg,NA,survey-text,2,13437
full_sample,103,30MVJZJNHN21MWOROHR9BLMB3J1J92,Sitting,4572,tangram,isolated,G1.jpg,NA,survey-text,7,43672
full_sample,106,3DR23U6WE63CVVBD8MLZ55AVSI8TER,jumping,4645.889999985229,tangram,isolated,tangram-67.jpg,NA,survey-text,9,73161
full_sample,71,3HUTX6F6VVC4NNUPJL4Z9UVJW71O2Y,running,3853.5099999990052,tangram,isolated,L1.jpg,NA,survey-text,3,17818
full_sample,98,336YQZE83W38MHS0OORKFX9QLHDM5I,holding,5379.17000008747,tangram,isolated,tangram-6.jpg,NA,survey-text,5,35052
full_sample,14,31Z0PCVWUL4RMGW3LE7TZVIE6V4T75,walking,5000.630000000456,tangram,isolated,B1.jpg,NA,survey-text,2,75136
full_sample,103,30MVJZJNHN21MWOROHR9BLMB3J1J92,Kneeling,4574,tangram,isolated,tangram-87.jpg,NA,survey-text,8,48778
full_sample,38,3GD6L00D3TM9YZRHN1P8C7W9918M10,pray,9814.409999999043,tangram,isolated,tangram-6.jpg,NA,survey-text,10,52621
full_sample,15,3D4CH1LGEBIRVUYQGB66E8UVBRKG9V,man,9279.924999995274,tangram,isolated,tangram-96.jpg,NA,survey-text,7,77816
full_sample,71,3HUTX6F6VVC4NNUPJL4Z9UVJW71O2Y,kicking,5341.999999998734,tangram,isolated,tangram-96.jpg,NA,survey-text,4,23682
full_sample,98,336YQZE83W38MHS0OORKFX9QLHDM5I,skating,5350.719999987632,tangram,isolated,tangram-168.jpg,NA,survey-text,6,40906
full_sample,14,31Z0PCVWUL4RMGW3LE7TZVIE6V4T75,leaping,4643.560000000434,tangram,isolated,W1.jpg,NA,survey-text,3,80295
full_sample,98,336YQZE83W38MHS0OORKFX9QLHDM5I,dancing,2872.005000244826,tangram,isolated,tangram-146.jpg,NA,survey-text,7,44281
full_sample,38,3GD6L00D3TM9YZRHN1P8C7W9918M10,fly,5007.939999999508,tangram,isolated,A2.jpg,NA,survey-text,11,58135
full_sample,8,3FIUS151DWR6A4LYUHCG6PGIF4FGGM,black,21846.335000009276,tangram,isolated,V1.jpg,NA,survey-text,2,43479
full_sample,71,3HUTX6F6VVC4NNUPJL4Z9UVJW71O2Y,jogging,5396.684999999707,tangram,isolated,O1.jpg,NA,survey-text,5,29602
full_sample,98,336YQZE83W38MHS0OORKFX9QLHDM5I,leaning,2770.1599998399615,tangram,isolated,B1.jpg,NA,survey-text,8,47554
full_sample,103,30MVJZJNHN21MWOROHR9BLMB3J1J92,Exercising,10765,tangram,isolated,tangram-187.jpg,NA,survey-text,9,60056
full_sample,24,3NOKK93PR2XA6CTGIRW46JAUP8LEEM,walking,3891.764999993029,tangram,isolated,tangram-9.jpg,NA,survey-text,2,59719
full_sample,38,3GD6L00D3TM9YZRHN1P8C7W9918M10,give,3941.2049999991723,tangram,isolated,H1.jpg,NA,survey-text,12,62583
full_sample,15,3D4CH1LGEBIRVUYQGB66E8UVBRKG9V,men,9435.559999998077,tangram,isolated,C2.jpg,NA,survey-text,8,87755
full_sample,14,31Z0PCVWUL4RMGW3LE7TZVIE6V4T75,dinosaur,9566.225000000486,tangram,isolated,tangram-178.jpg,NA,survey-text,4,90383
full_sample,38,3GD6L00D3TM9YZRHN1P8C7W9918M10,sad,2261.160000001837,tangram,isolated,B1.jpg,NA,survey-text,13,65350
full_sample,24,3NOKK93PR2XA6CTGIRW46JAUP8LEEM,falling,2773.6650000006193,tangram,isolated,tangram-183.jpg,NA,survey-text,3,63008
full_sample,106,3DR23U6WE63CVVBD8MLZ55AVSI8TER,stunt,17796.979999984615,tangram,isolated,tangram-8.jpg,NA,survey-text,10,91467
full_sample,98,336YQZE83W38MHS0OORKFX9QLHDM5I,dancing,5527.710000053048,tangram,isolated,tangram-114.jpg,NA,survey-text,9,53585
full_sample,24,3NOKK93PR2XA6CTGIRW46JAUP8LEEM,carry,2642.4350000015693,tangram,isolated,I1.jpg,NA,survey-text,4,66171
full_sample,14,31Z0PCVWUL4RMGW3LE7TZVIE6V4T75,kicking,4220.799999999144,tangram,isolated,tangram-48.jpg,NA,survey-text,5,95139
full_sample,15,3D4CH1LGEBIRVUYQGB66E8UVBRKG9V,cap,6858.525000003283,tangram,isolated,tangram-71.jpg,NA,survey-text,9,95118
full_sample,103,30MVJZJNHN21MWOROHR9BLMB3J1J92,Plowing,8521,tangram,isolated,tangram-114.jpg,NA,survey-text,10,69089
full_sample,98,336YQZE83W38MHS0OORKFX9QLHDM5I,lunging,3738.63000003621,tangram,isolated,tangram-178.jpg,NA,survey-text,10,57826
full_sample,38,3GD6L00D3TM9YZRHN1P8C7W9918M10,silly,6076.840000001539,tangram,isolated,tangram-146.jpg,NA,survey-text,14,71934
full_sample,24,3NOKK93PR2XA6CTGIRW46JAUP8LEEM,tripping,3194.1249999945285,tangram,isolated,tangram-8.jpg,NA,survey-text,5,69929
full_sample,100,32VNZTT0A8THNE1SFR4RW4XMR8HR46,dog,7311.275000218302,tangram,isolated,C1.jpg,NA,survey-text,2,27458
full_sample,8,3FIUS151DWR6A4LYUHCG6PGIF4FGGM,logo,15980.429999995977,tangram,isolated,tangram-71.jpg,NA,survey-text,3,59968
full_sample,24,3NOKK93PR2XA6CTGIRW46JAUP8LEEM,standing,3193.8050000026124,tangram,isolated,tangram-74.jpg,NA,survey-text,6,73639
full_sample,98,336YQZE83W38MHS0OORKFX9QLHDM5I,walking,4288.184999953955,tangram,isolated,tangram-126.jpg,NA,survey-text,11,62618
full_sample,15,3D4CH1LGEBIRVUYQGB66E8UVBRKG9V,game,6420.960000003106,tangram,isolated,A2.jpg,NA,survey-text,10,102041
full_sample,38,3GD6L00D3TM9YZRHN1P8C7W9918M10,sprint,5813.340000000608,tangram,isolated,tangram-32.jpg,NA,survey-text,15,78252
full_sample,100,32VNZTT0A8THNE1SFR4RW4XMR8HR46,stand,6719.955000095069,tangram,isolated,H1.jpg,NA,survey-text,3,34689
full_sample,24,3NOKK93PR2XA6CTGIRW46JAUP8LEEM,strolling,3308.6549999861745,tangram,isolated,tangram-64.jpg,NA,survey-text,7,77483
full_sample,106,3DR23U6WE63CVVBD8MLZ55AVSI8TER,walk,14626.244999992196,tangram,isolated,A1.jpg,NA,survey-text,11,106597
full_sample,14,31Z0PCVWUL4RMGW3LE7TZVIE6V4T75,flexible,11313.029999999344,tangram,isolated,L1.jpg,NA,survey-text,6,106972
full_sample,15,3D4CH1LGEBIRVUYQGB66E8UVBRKG9V,dance,4864.440000004834,tangram,isolated,tangram-111.jpg,NA,survey-text,11,107411
full_sample,38,3GD6L00D3TM9YZRHN1P8C7W9918M10,prance,3657.905000000028,tangram,isolated,tangram-64.jpg,NA,survey-text,16,82417
full_sample,24,3NOKK93PR2XA6CTGIRW46JAUP8LEEM,resting,3111.5799999970477,tangram,isolated,tangram-179.jpg,NA,survey-text,8,81114
full_sample,71,3HUTX6F6VVC4NNUPJL4Z9UVJW71O2Y,standing,22832.88999999968,tangram,isolated,C2.jpg,NA,survey-text,6,52959
full_sample,98,336YQZE83W38MHS0OORKFX9QLHDM5I,flying,7945.765000302345,tangram,isolated,V1.jpg,NA,survey-text,12,71066
full_sample,100,32VNZTT0A8THNE1SFR4RW4XMR8HR46,catch,5291.0899999551475,tangram,isolated,tangram-179.jpg,NA,survey-text,4,40491
full_sample,24,3NOKK93PR2XA6CTGIRW46JAUP8LEEM,dancing,2795.8350000117207,tangram,isolated,tangram-168.jpg,NA,survey-text,9,84423
full_sample,98,336YQZE83W38MHS0OORKFX9QLHDM5I,running,2537.185000255704,tangram,isolated,N1.jpg,NA,survey-text,13,74105
full_sample,14,31Z0PCVWUL4RMGW3LE7TZVIE6V4T75,feminine,5730.794999999489,tangram,isolated,tangram-103.jpg,NA,survey-text,7,113221
full_sample,38,3GD6L00D3TM9YZRHN1P8C7W9918M10,strawberry,5077.629999999772,catch,NA,catch_trial.jpg,NA,survey-text,17,88000
full_sample,15,3D4CH1LGEBIRVUYQGB66E8UVBRKG9V,jump,6034.474999993108,tangram,isolated,O1.jpg,NA,survey-text,12,113949
full_sample,39,3VNL7UK1XG8419B93X55NNVV4JNTF9,Chinese,8281.895000000077,tangram,isolated,tangram-71.jpg,NA,survey-text,2,20620
full_sample,71,3HUTX6F6VVC4NNUPJL4Z9UVJW71O2Y,laying,5710.18499999991,tangram,isolated,D1.jpg,NA,survey-text,7,59196
full_sample,106,3DR23U6WE63CVVBD8MLZ55AVSI8TER,skiping,8754.369999980554,tangram,isolated,tangram-192.jpg,NA,survey-text,12,115863
full_sample,100,32VNZTT0A8THNE1SFR4RW4XMR8HR46,dance,4643.9450001344085,tangram,isolated,tangram-192.jpg,NA,survey-text,5,45644
full_sample,98,336YQZE83W38MHS0OORKFX9QLHDM5I,praying,2611.4599998109043,tangram,isolated,J1.jpg,NA,survey-text,14,77221
full_sample,38,3GD6L00D3TM9YZRHN1P8C7W9918M10,sulk,3190.1399999987916,tangram,isolated,tangram-71.jpg,NA,survey-text,18,91696
full_sample,24,3NOKK93PR2XA6CTGIRW46JAUP8LEEM,skipping,4527.044999995269,tangram,isolated,L1.jpg,NA,survey-text,10,89476
full_sample,15,3D4CH1LGEBIRVUYQGB66E8UVBRKG9V,sit,4532.305000000633,tangram,isolated,tangram-120.jpg,NA,survey-text,13,118984
full_sample,14,31Z0PCVWUL4RMGW3LE7TZVIE6V4T75,statue,6271.5900000002875,tangram,isolated,Y1.jpg,NA,survey-text,8,120010
full_sample,24,3NOKK93PR2XA6CTGIRW46JAUP8LEEM,running,2937.389999991865,tangram,isolated,tangram-81.jpg,NA,survey-text,11,92926
full_sample,38,3GD6L00D3TM9YZRHN1P8C7W9918M10,skate,3061.779999999999,tangram,isolated,A1.jpg,NA,survey-text,19,95262
full_sample,100,32VNZTT0A8THNE1SFR4RW4XMR8HR46,throw,4922.540000174195,tangram,isolated,A2.jpg,NA,survey-text,6,51076
full_sample,98,336YQZE83W38MHS0OORKFX9QLHDM5I,dancing,6436.534999869764,tangram,isolated,tangram-30.jpg,NA,survey-text,15,84160
full_sample,39,3VNL7UK1XG8419B93X55NNVV4JNTF9,Running,8821.524999999838,tangram,isolated,tangram-55.jpg,NA,survey-text,3,29960
full_sample,8,3FIUS151DWR6A4LYUHCG6PGIF4FGGM,athelete,23082.18999998644,tangram,isolated,tangram-81.jpg,NA,survey-text,4,83559
full_sample,24,3NOKK93PR2XA6CTGIRW46JAUP8LEEM,sitting,2995.33999999403,tangram,isolated,G1.jpg,NA,survey-text,12,96473
full_sample,38,3GD6L00D3TM9YZRHN1P8C7W9918M10,eat,3729.3050000007497,tangram,isolated,tangram-179.jpg,NA,survey-text,20,99500
full_sample,14,31Z0PCVWUL4RMGW3LE7TZVIE6V4T75,dancing,6372.714999999516,tangram,isolated,V1.jpg,NA,survey-text,9,126895
full_sample,24,3NOKK93PR2XA6CTGIRW46JAUP8LEEM,standing,2743.849999998929,tangram,isolated,tangram-142.jpg,NA,survey-text,13,99744
full_sample,98,336YQZE83W38MHS0OORKFX9QLHDM5I,stretching,5023.975000251085,tangram,isolated,F1.jpg,NA,survey-text,16,89686
full_sample,38,3GD6L00D3TM9YZRHN1P8C7W9918M10,think,3521.4000000014494,tangram,isolated,tangram-120.jpg,NA,survey-text,21,103527
full_sample,71,3HUTX6F6VVC4NNUPJL4Z9UVJW71O2Y,handstand,13257.265000000189,tangram,isolated,tangram-4.jpg,NA,survey-text,8,72977
full_sample,39,3VNL7UK1XG8419B93X55NNVV4JNTF9,Boat,5239.115000000307,tangram,isolated,tangram-143.jpg,NA,survey-text,4,35704
full_sample,24,3NOKK93PR2XA6CTGIRW46JAUP8LEEM,walking,3065.1450000004843,tangram,isolated,tangram-30.jpg,NA,survey-text,14,103329
full_sample,106,3DR23U6WE63CVVBD8MLZ55AVSI8TER,contemp,15918.479999992996,tangram,isolated,tangram-142.jpg,NA,survey-text,13,132287
full_sample,100,32VNZTT0A8THNE1SFR4RW4XMR8HR46,jump,10774.209999945015,tangram,isolated,J1.jpg,NA,survey-text,7,62358
full_sample,98,336YQZE83W38MHS0OORKFX9QLHDM5I,strawberry,3740.364999976009,catch,NA,catch_trial.jpg,NA,survey-text,17,93929
full_sample,24,3NOKK93PR2XA6CTGIRW46JAUP8LEEM,bending,3247.6150000002235,tangram,isolated,K1.jpg,NA,survey-text,15,107098
full_sample,56,3QJOXOW4XKG8I0LTZPKNJRF3YACEMB,person,4584,tangram,isolated,tangram-32.jpg,NA,survey-text,2,27260
full_sample,38,3GD6L00D3TM9YZRHN1P8C7W9918M10,hurry,6193.939999997383,tangram,isolated,L1.jpg,NA,survey-text,22,110227
full_sample,106,3DR23U6WE63CVVBD8MLZ55AVSI8TER,sprinting,3123.2249999884516,tangram,isolated,R1.jpg,NA,survey-text,14,135920
full_sample,39,3VNL7UK1XG8419B93X55NNVV4JNTF9,Stride,6593.409999999953,tangram,isolated,N1.jpg,NA,survey-text,5,42802
full_sample,100,32VNZTT0A8THNE1SFR4RW4XMR8HR46,run,3694.799999706447,tangram,isolated,N1.jpg,NA,survey-text,8,66563
full_sample,71,3HUTX6F6VVC4NNUPJL4Z9UVJW71O2Y,staring,7929.255000000921,tangram,isolated,Y1.jpg,NA,survey-text,9,81452
full_sample,14,31Z0PCVWUL4RMGW3LE7TZVIE6V4T75,athletic,11500.28999999995,tangram,isolated,tangram-32.jpg,NA,survey-text,10,138915
full_sample,98,336YQZE83W38MHS0OORKFX9QLHDM5I,zombie,6090.060000307858,tangram,isolated,tangram-171.jpg,NA,survey-text,18,100522
full_sample,106,3DR23U6WE63CVVBD8MLZ55AVSI8TER,sitting,3215.395000006538,tangram,isolated,tangram-143.jpg,NA,survey-text,15,139640
full_sample,56,3QJOXOW4XKG8I0LTZPKNJRF3YACEMB,person,5077,tangram,isolated,L1.jpg,NA,survey-text,3,32847
full_sample,100,32VNZTT0A8THNE1SFR4RW4XMR8HR46,kick,3347.529999911785,tangram,isolated,tangram-48.jpg,NA,survey-text,9,70420
full_sample,24,3NOKK93PR2XA6CTGIRW46JAUP8LEEM,walking,5748.485000003711,tangram,isolated,tangram-106.jpg,NA,survey-text,16,113370
full_sample,38,3GD6L00D3TM9YZRHN1P8C7W9918M10,sports,5507.714999999735,tangram,isolated,V1.jpg,NA,survey-text,23,116246
full_sample,12,3QBD8R3Z228EQ19CNZNN29SHGLXO4U,walking,10474.374999990687,tangram,isolated,tangram-96.jpg,NA,survey-text,2,26106
full_sample,39,3VNL7UK1XG8419B93X55NNVV4JNTF9,Dancing,5086.095000000118,tangram,isolated,W1.jpg,NA,survey-text,6,48394
full_sample,57,3AAPLD8UCD6OF52FYNT5Q878KY0TH7,person,5180.679999990389,tangram,isolated,tangram-6.jpg,NA,survey-text,2,26174
full_sample,56,3QJOXOW4XKG8I0LTZPKNJRF3YACEMB,person,3440,tangram,isolated,H1.jpg,NA,survey-text,4,36795
full_sample,98,336YQZE83W38MHS0OORKFX9QLHDM5I,reaching,4687.30999995023,tangram,isolated,W1.jpg,NA,survey-text,19,105717
full_sample,39,3VNL7UK1XG8419B93X55NNVV4JNTF9,Leaning,3683.019999999946,tangram,isolated,tangram-146.jpg,NA,survey-text,7,52581
full_sample,106,3DR23U6WE63CVVBD8MLZ55AVSI8TER,praying,6754.859999986365,tangram,isolated,I1.jpg,NA,survey-text,16,146897
full_sample,14,31Z0PCVWUL4RMGW3LE7TZVIE6V4T75,advancing,7776.420000000129,tangram,isolated,O1.jpg,NA,survey-text,11,147210
full_sample,56,3QJOXOW4XKG8I0LTZPKNJRF3YACEMB,person,2699,tangram,isolated,tangram-171.jpg,NA,survey-text,5,40005
full_sample,99,3TPZPLC3M11BT5292LVJH451CQY3P6,man,7307.180000003427,tangram,isolated,tangram-192.jpg,NA,survey-text,2,27237
full_sample,24,3NOKK93PR2XA6CTGIRW46JAUP8LEEM,strawberry,6324.605000001611,catch,NA,catch_trial.jpg,NA,survey-text,17,120208
full_sample,38,3GD6L00D3TM9YZRHN1P8C7W9918M10,walk,6376.349999998638,tangram,isolated,tangram-99.jpg,NA,survey-text,24,123128
full_sample,57,3AAPLD8UCD6OF52FYNT5Q878KY0TH7,toga,6217.204999993555,tangram,isolated,tangram-108.jpg,NA,survey-text,3,32914
full_sample,12,3QBD8R3Z228EQ19CNZNN29SHGLXO4U,sitting,6698.904999997467,tangram,isolated,tangram-120.jpg,NA,survey-text,3,33318
full_sample,72,3EFVCAY5L4Y18R5HJPLVBPR0JDJJ8D,prayer,9919.255000015255,tangram,isolated,J1.jpg,NA,survey-text,2,20221
full_sample,99,3TPZPLC3M11BT5292LVJH451CQY3P6,jump,3228.635000064969,tangram,isolated,tangram-48.jpg,NA,survey-text,3,30974
full_sample,24,3NOKK93PR2XA6CTGIRW46JAUP8LEEM,praying,3341.7999999946915,tangram,isolated,tangram-87.jpg,NA,survey-text,18,124094
full_sample,100,32VNZTT0A8THNE1SFR4RW4XMR8HR46,lie,10654.405000153929,tangram,isolated,D1.jpg,NA,survey-text,10,81585
full_sample,56,3QJOXOW4XKG8I0LTZPKNJRF3YACEMB,person,3876,tangram,isolated,B1.jpg,NA,survey-text,6,44402
full_sample,38,3GD6L00D3TM9YZRHN1P8C7W9918M10,sleep,4079.104999997071,tangram,isolated,D1.jpg,NA,survey-text,25,127711
full_sample,12,3QBD8R3Z228EQ19CNZNN29SHGLXO4U,dancing,4209.479999990435,tangram,isolated,tangram-30.jpg,NA,survey-text,4,38035
full_sample,24,3NOKK93PR2XA6CTGIRW46JAUP8LEEM,walking,2043.6550000013085,tangram,isolated,tangram-99.jpg,NA,survey-text,19,126656
