id,age,trial,target,rightpic,leftpic,chosen,chosenside,chosenpic,correct,date,time,rt
1,7,0,D1,K1,D1,1,R,D1,Y,2/13/2020,11:35:20,4694
1,7,1,A1,A1,H1,2,L,A1,Y,2/13/2020,11:35:20,2307
1,7,2,E1,E1,I1,2,L,E1,Y,2/13/2020,11:35:20,2888
1,7,3,I1,I1,B1,1,L,I1,Y,2/13/2020,11:35:20,4402
1,7,4,C1,E1,C1,2,R,C1,Y,2/13/2020,11:35:20,4575
1,7,5,B1,C1,B1,1,R,B1,Y,2/13/2020,11:35:20,2101
1,7,6,F1,F1,K1,1,L,F1,Y,2/13/2020,11:35:20,3375
1,7,7,G1,G1,C1,2,L,G1,Y,2/13/2020,11:35:20,5651
1,7,8,H1,H1,C1,1,L,H1,Y,2/13/2020,11:35:20,2976
2,7,0,G1,G1,C1,1,L,G1,Y,2/13/2020,11:38:27,3666
1,7,9,K1,B1,K1,2,R,K1,Y,2/13/2020,11:35:20,3547
2,7,1,C1,E1,C1,2,R,C1,Y,2/13/2020,11:38:27,3373
2,7,2,E1,E1,I1,2,L,E1,Y,2/13/2020,11:38:27,4267
2,7,3,F1,K1,F1,1,L,K1,N,2/13/2020,11:38:27,8010
2,7,4,K1,F1,K1,2,L,F1,N,2/13/2020,11:38:27,2838
2,7,5,B1,C1,B1,2,R,B1,Y,2/13/2020,11:38:27,3372
2,7,6,H1,C1,H1,1,R,H1,Y,2/13/2020,11:38:27,2807
2,7,7,I1,B1,I1,1,R,I1,Y,2/13/2020,11:38:27,6256
2,7,8,D1,E1,D1,1,R,D1,Y,2/13/2020,11:38:27,2738
2,7,9,A1,A1,I1,2,L,A1,Y,2/13/2020,11:38:27,2775
3,7,0,C1,A1,C1,1,R,C1,Y,2/13/2020,11:40:21,3355
3,7,1,D1,D1,H1,1,L,D1,Y,2/13/2020,11:40:21,9974
3,7,2,A1,A1,I1,2,L,A1,Y,2/13/2020,11:40:21,2964
3,7,4,B1,B1,D1,2,L,B1,Y,2/13/2020,11:40:21,2557
3,7,3,G1,E1,G1,2,R,G1,Y,2/13/2020,11:40:21,2076
3,7,5,F1,B1,F1,1,R,F1,Y,2/13/2020,11:40:21,3357
3,7,7,E1,I1,E1,2,R,E1,Y,2/13/2020,11:40:21,2010
3,7,8,K1,B1,K1,2,R,K1,Y,2/13/2020,11:40:21,2018
3,7,9,H1,H1,E1,1,L,H1,Y,2/13/2020,11:40:21,3261
5,7,0,A1,D1,A1,2,R,A1,Y,2/13/2020,11:55:29,6076
5,7,1,K1,K1,A1,2,L,K1,Y,2/13/2020,11:55:29,3136
5,7,2,F1,G1,F1,1,R,F1,Y,2/13/2020,11:55:29,3328
5,7,3,D1,D1,H1,2,R,H1,N,2/13/2020,11:55:29,2801
5,7,4,E1,E1,I1,1,L,E1,Y,2/13/2020,11:55:29,3639
5,7,6,H1,H1,D1,2,R,D1,N,2/13/2020,11:55:29,3520
5,7,5,B1,I1,B1,2,R,B1,Y,2/13/2020,11:55:29,2656
4,7,0,F1,B1,F1,2,R,F1,Y,2/13/2020,11:56:14,6495
5,7,8,C1,C1,I1,1,L,C1,Y,2/13/2020,11:55:29,3118
4,7,1,H1,H1,E1,1,L,H1,Y,2/13/2020,11:56:14,4324
5,7,9,I1,B1,I1,1,R,I1,Y,2/13/2020,11:55:29,2541
4,7,2,B1,C1,B1,1,L,C1,N,2/13/2020,11:56:14,2778
4,7,3,D1,D1,H1,1,L,D1,Y,2/13/2020,11:56:14,2866
4,7,4,E1,I1,E1,2,R,E1,Y,2/13/2020,11:56:14,2996
4,7,5,I1,A1,I1,2,R,I1,Y,2/13/2020,11:56:14,4482
4,7,7,A1,A1,I1,1,L,A1,Y,2/13/2020,11:56:14,3039
4,7,6,C1,I1,C1,2,R,C1,Y,2/13/2020,11:56:14,1915
4,7,8,K1,K1,A1,1,L,K1,Y,2/13/2020,11:56:14,5659
4,7,9,G1,G1,K1,2,L,G1,Y,2/13/2020,11:56:14,5273
6,8,0,B1,B1,D1,1,R,D1,N,2/13/2020,12:25:10,18431
6,8,1,G1,G1,D1,2,L,G1,Y,2/13/2020,12:25:10,4616
6,8,2,D1,E1,D1,1,R,D1,Y,2/13/2020,12:25:10,3273
6,8,3,C1,H1,C1,2,L,H1,N,2/13/2020,12:25:10,3914
6,8,4,F1,F1,B1,2,L,F1,Y,2/13/2020,12:25:10,5913
6,8,5,I1,I1,B1,2,L,I1,Y,2/13/2020,12:25:10,4875
6,8,7,K1,D1,K1,1,R,K1,Y,2/13/2020,12:25:10,3433
6,8,8,H1,H1,E1,1,L,H1,Y,2/13/2020,12:25:10,5518
7,4,0,F1,B1,F1,1,L,B1,N,2/13/2020,12:37:40,28461
7,4,1,K1,K1,F1,2,L,K1,Y,2/13/2020,12:37:40,37532
7,4,2,H1,H1,A1,2,L,H1,Y,2/13/2020,12:37:40,26764
7,4,3,B1,C1,B1,2,L,C1,N,2/13/2020,12:37:40,38715
7,4,4,E1,E1,I1,1,L,E1,Y,2/13/2020,12:37:40,75392
7,4,5,D1,D1,F1,2,L,D1,Y,2/13/2020,12:37:40,13018
7,4,6,A1,A1,D1,2,L,A1,Y,2/13/2020,12:37:40,7496
7,4,7,G1,G1,E1,1,R,E1,N,2/13/2020,12:37:40,5589
7,4,8,I1,I1,B1,1,L,I1,Y,2/13/2020,12:37:40,4287
7,4,9,C1,E1,C1,1,R,C1,Y,2/13/2020,12:37:40,3603
9,8,0,H1,E1,H1,2,R,H1,Y,2/13/2020,12:59:49,7630
9,8,1,F1,F1,B1,1,L,F1,Y,2/13/2020,12:59:49,5196
9,8,2,A1,A1,I1,2,R,I1,N,2/13/2020,12:59:49,5908
9,8,3,I1,C1,I1,1,R,I1,Y,2/13/2020,12:59:49,3006
9,8,5,E1,E1,A1,1,L,E1,Y,2/13/2020,12:59:49,3305
9,8,6,B1,I1,B1,2,R,B1,Y,2/13/2020,12:59:49,2774
9,8,4,K1,F1,K1,2,R,K1,Y,2/13/2020,12:59:49,3755
9,8,7,D1,D1,K1,2,L,D1,Y,2/13/2020,12:59:49,4289
9,8,8,G1,G1,K1,1,R,K1,N,2/13/2020,12:59:49,1825
9,8,9,C1,C1,I1,1,L,C1,Y,2/13/2020,12:59:49,2135
8,7,0,F1,K1,F1,2,R,F1,Y,2/13/2020,13:01:25,6470
8,7,1,G1,G1,E1,2,L,G1,Y,2/13/2020,13:01:25,4959
8,7,2,E1,E1,B1,2,L,E1,Y,2/13/2020,13:01:25,3206
8,7,3,D1,F1,D1,1,R,D1,Y,2/13/2020,13:01:25,3240
8,7,4,K1,D1,K1,1,R,K1,Y,2/13/2020,13:01:25,3859
8,7,5,A1,I1,A1,1,R,A1,Y,2/13/2020,13:01:25,3252
8,7,6,H1,E1,H1,1,R,H1,Y,2/13/2020,13:01:25,3742
8,7,8,I1,I1,C1,2,L,I1,Y,2/13/2020,13:01:25,2758
8,7,7,C1,C1,A1,2,L,C1,Y,2/13/2020,13:01:25,2569
8,7,9,B1,B1,C1,1,R,C1,N,2/13/2020,13:01:25,7640
10,8,0,D1,E1,D1,1,R,D1,Y,2/18/2020,13:33:21,27930
10,8,1,H1,E1,H1,1,R,H1,Y,2/18/2020,13:33:21,4060
10,8,2,G1,G1,C1,2,L,G1,Y,2/18/2020,13:33:21,3590
10,8,3,B1,B1,D1,1,L,B1,Y,2/18/2020,13:33:21,2579
10,8,4,I1,B1,I1,2,R,I1,Y,2/18/2020,13:33:21,2715
10,8,5,C1,H1,C1,2,R,C1,Y,2/18/2020,13:33:21,2638
10,8,6,F1,F1,K1,2,R,K1,N,2/18/2020,13:33:21,4279
10,8,7,K1,K1,B1,1,R,B1,N,2/18/2020,13:33:21,2967
10,8,8,A1,K1,A1,1,R,A1,Y,2/18/2020,13:33:21,3001
10,8,9,E1,A1,E1,2,L,A1,N,2/18/2020,13:33:21,2128
11,8,0,H1,C1,H1,2,R,H1,Y,2/18/2020,13:36:45,7519
11,8,1,F1,F1,C1,1,L,F1,Y,2/18/2020,13:36:45,3876
11,8,2,G1,E1,G1,1,L,E1,N,2/18/2020,13:36:45,7220
11,8,3,C1,H1,C1,1,R,C1,Y,2/18/2020,13:36:45,3772
11,8,4,K1,K1,B1,2,L,K1,Y,2/18/2020,13:36:45,4933
11,8,5,E1,A1,E1,1,R,E1,Y,2/18/2020,13:36:45,10075
11,8,6,A1,A1,K1,2,L,A1,Y,2/18/2020,13:36:45,4837
11,8,7,I1,B1,I1,1,R,I1,Y,2/18/2020,13:36:45,3531
11,8,8,D1,H1,D1,2,R,D1,Y,2/18/2020,13:36:45,2177
11,8,9,B1,B1,K1,2,L,B1,Y,2/18/2020,13:36:45,4593
15,8,0,F1,C1,F1,1,R,F1,Y,2/18/2020,13:40:30,8246
15,8,1,C1,C1,H1,1,L,C1,Y,2/18/2020,13:40:30,4098
15,8,2,H1,H1,A1,2,R,A1,N,2/18/2020,13:40:30,3768
15,8,3,E1,A1,E1,2,L,A1,N,2/18/2020,13:40:30,2927
15,8,4,D1,D1,E1,2,L,D1,Y,2/18/2020,13:40:30,1759
15,8,5,A1,A1,K1,2,R,K1,N,2/18/2020,13:40:30,5834
15,8,6,I1,C1,I1,1,R,I1,Y,2/18/2020,13:40:30,2325
15,8,7,G1,D1,G1,1,R,G1,Y,2/18/2020,13:40:30,3590
15,8,8,B1,B1,C1,2,L,B1,Y,2/18/2020,13:40:30,2571
15,8,9,K1,K1,A1,1,L,K1,Y,2/18/2020,13:40:30,2993
14,7,0,H1,H1,D1,1,L,H1,Y,2/18/2020,13:43:30,3023
14,7,1,I1,I1,A1,2,L,I1,Y,2/18/2020,13:43:30,2891
14,7,2,G1,G1,E1,2,L,G1,Y,2/18/2020,13:43:30,2777
14,7,3,E1,I1,E1,1,R,E1,Y,2/18/2020,13:43:30,2237
14,7,4,K1,K1,D1,2,L,K1,Y,2/18/2020,13:43:30,4459
14,7,5,B1,B1,K1,1,L,B1,Y,2/18/2020,13:43:30,2236
14,7,6,D1,F1,D1,1,R,D1,Y,2/18/2020,13:43:30,3050
14,7,7,F1,F1,K1,2,L,F1,Y,2/18/2020,13:43:30,2507
14,7,8,C1,I1,C1,2,R,C1,Y,2/18/2020,13:43:30,2839
14,7,9,A1,K1,A1,1,R,A1,Y,2/18/2020,13:43:30,2489
16,7,0,G1,G1,D1,1,R,D1,N,2/18/2020,13:46:33,10594
16,7,1,E1,B1,E1,1,R,E1,Y,2/18/2020,13:46:33,3501
16,7,2,K1,K1,D1,2,L,K1,Y,2/18/2020,13:46:33,5015
16,7,3,C1,A1,C1,1,L,A1,N,2/18/2020,13:46:33,2704
16,7,4,D1,D1,F1,1,L,D1,Y,2/18/2020,13:46:33,3546
16,7,5,F1,C1,F1,2,R,F1,Y,2/18/2020,13:46:33,3166
16,7,6,A1,I1,A1,2,R,A1,Y,2/18/2020,13:46:33,6090
16,7,7,H1,A1,H1,1,R,H1,Y,2/18/2020,13:46:33,3258
16,7,8,I1,I1,C1,2,R,C1,N,2/18/2020,13:46:33,2808
16,7,9,B1,C1,B1,2,R,B1,Y,2/18/2020,13:46:33,2445
17,8,0,A1,A1,K1,1,L,A1,Y,2/18/2020,13:49:39,2669
17,8,1,B1,B1,I1,1,L,B1,Y,2/18/2020,13:49:39,2139
17,8,2,K1,K1,A1,1,L,K1,Y,2/18/2020,13:49:39,2733
17,8,3,I1,I1,A1,1,L,I1,Y,2/18/2020,13:49:39,2938
17,8,4,H1,H1,A1,2,L,H1,Y,2/18/2020,13:49:39,2937
17,8,5,C1,A1,C1,2,R,C1,Y,2/18/2020,13:49:39,3637
17,8,6,D1,F1,D1,2,L,F1,N,2/18/2020,13:49:39,3220
17,8,7,E1,B1,E1,1,L,B1,N,2/18/2020,13:49:39,2473
17,8,8,F1,F1,K1,2,R,K1,N,2/18/2020,13:49:39,4658
17,8,9,G1,C1,G1,2,R,G1,Y,2/18/2020,13:49:39,3856
13,7,0,D1,E1,D1,2,L,E1,N,2/18/2020,13:23:57,16418
13,7,1,A1,H1,A1,2,R,A1,Y,2/18/2020,13:23:57,3674
13,7,2,K1,K1,B1,2,L,K1,Y,2/18/2020,13:23:57,2691
13,7,3,H1,D1,H1,2,R,H1,Y,2/18/2020,13:23:57,2368
13,7,4,B1,K1,B1,2,R,B1,Y,2/18/2020,13:23:57,8129
13,7,5,E1,I1,E1,1,R,E1,Y,2/18/2020,13:23:57,3947
13,7,6,G1,E1,G1,1,R,G1,Y,2/18/2020,13:23:57,3983
13,7,7,F1,C1,F1,1,R,F1,Y,2/18/2020,13:23:57,2510
13,7,8,I1,E1,I1,1,R,I1,Y,2/18/2020,13:23:57,4672
13,7,9,C1,I1,C1,1,R,C1,Y,2/18/2020,13:23:57,5824
19,8,0,E1,E1,B1,1,L,E1,Y,2/18/2020,14:00:23,5376
19,8,1,B1,B1,D1,1,L,B1,Y,2/18/2020,14:00:23,2628
19,8,2,A1,A1,I1,2,L,A1,Y,2/18/2020,14:00:23,3784
19,8,3,K1,B1,K1,2,R,K1,Y,2/18/2020,14:00:23,3069
19,8,4,D1,D1,E1,1,L,D1,Y,2/18/2020,14:00:23,4703
19,8,5,I1,I1,E1,2,L,I1,Y,2/18/2020,14:00:23,2788
19,8,6,F1,B1,F1,2,L,B1,N,2/18/2020,14:00:23,3828
19,8,7,C1,I1,C1,1,R,C1,Y,2/18/2020,14:00:23,3639
19,8,8,H1,H1,D1,2,L,H1,Y,2/18/2020,14:00:23,11205
19,8,9,G1,E1,G1,1,R,G1,Y,2/18/2020,14:00:23,2940
20,8,0,D1,D1,E1,2,L,D1,Y,2/18/2020,14:03:08,4459
20,8,1,B1,I1,B1,1,R,B1,Y,2/18/2020,14:03:08,3461
20,8,2,F1,G1,F1,2,R,F1,Y,2/18/2020,14:03:08,2140
20,8,3,A1,A1,H1,1,L,A1,Y,2/18/2020,14:03:08,3324
20,8,4,G1,G1,E1,2,L,G1,Y,2/18/2020,14:03:08,2170
20,8,5,E1,H1,E1,1,R,E1,Y,2/18/2020,14:03:08,2834
20,8,6,K1,A1,K1,1,R,K1,Y,2/18/2020,14:03:08,4820
20,8,7,I1,I1,C1,2,L,I1,Y,2/18/2020,14:03:08,3614
20,8,8,C1,A1,C1,1,R,C1,Y,2/18/2020,14:03:08,3268
20,8,9,H1,H1,E1,2,L,H1,Y,2/18/2020,14:03:08,4228
18,7,0,B1,B1,K1,2,L,B1,Y,2/18/2020,14:05:58,4381
18,7,1,F1,F1,K1,1,L,F1,Y,2/18/2020,14:05:58,6231
18,7,2,K1,B1,K1,1,L,B1,N,2/18/2020,14:05:58,2840
18,7,3,G1,D1,G1,1,L,D1,N,2/18/2020,14:05:58,4576
18,7,4,C1,A1,C1,2,R,C1,Y,2/18/2020,14:05:58,1754
18,7,5,I1,E1,I1,2,R,I1,Y,2/18/2020,14:05:58,3441
18,7,6,H1,H1,A1,1,L,H1,Y,2/18/2020,14:05:58,2981
18,7,7,E1,H1,E1,2,R,E1,Y,2/18/2020,14:05:58,2592
18,7,8,D1,D1,H1,2,L,D1,Y,2/18/2020,14:05:58,2197
18,7,9,A1,H1,A1,1,R,A1,Y,2/18/2020,14:05:58,2702
12,7,0,I1,I1,C1,2,L,I1,Y,2/18/2020,14:08:21,5304
12,7,1,E1,E1,I1,2,L,E1,Y,2/18/2020,14:08:21,3425
12,7,2,K1,F1,K1,1,R,K1,Y,2/18/2020,14:08:21,11024
12,7,3,C1,C1,I1,2,L,C1,Y,2/18/2020,14:08:21,5470
12,7,4,D1,D1,K1,1,L,D1,Y,2/18/2020,14:08:21,3385
12,7,5,B1,D1,B1,1,R,B1,Y,2/18/2020,14:08:21,3032
12,7,6,A1,K1,A1,1,R,A1,Y,2/18/2020,14:08:21,3118
12,7,7,G1,G1,E1,2,L,G1,Y,2/18/2020,14:08:21,3826
12,7,8,H1,A1,H1,1,R,H1,Y,2/18/2020,14:08:21,4823
12,7,9,F1,C1,F1,2,R,F1,Y,2/18/2020,14:08:21,3658
21,6,0,H1,H1,D1,1,R,D1,N,2/22/2020,10:37:19,10527
21,6,1,A1,A1,H1,1,L,A1,Y,2/22/2020,10:37:19,7179
21,6,2,E1,A1,E1,2,L,A1,N,2/22/2020,10:37:19,2574
21,6,3,G1,K1,G1,1,R,G1,Y,2/22/2020,10:37:19,7214
21,6,4,F1,F1,C1,2,L,F1,Y,2/22/2020,10:37:19,5725
21,6,5,D1,E1,D1,2,R,D1,Y,2/22/2020,10:37:19,4286
21,6,6,K1,D1,K1,1,L,D1,N,2/22/2020,10:37:19,3460
21,6,7,C1,E1,C1,2,L,E1,N,2/22/2020,10:37:19,4099
21,6,8,I1,I1,B1,1,L,I1,Y,2/22/2020,10:37:19,3709
21,6,9,B1,B1,C1,2,L,B1,Y,2/22/2020,10:37:19,4168
62,8,0,A1,I1,A1,2,R,A1,Y,2/22/2020,10:48:39,7333
62,8,1,I1,I1,E1,2,L,I1,Y,2/22/2020,10:48:39,3525
62,8,2,B1,B1,C1,2,L,B1,Y,2/22/2020,10:48:39,3020
62,8,3,F1,C1,F1,1,R,F1,Y,2/22/2020,10:48:39,4441
62,8,4,D1,E1,D1,1,R,D1,Y,2/22/2020,10:48:39,3013
62,8,5,E1,A1,E1,1,R,E1,Y,2/22/2020,10:48:39,5183
62,8,6,G1,G1,E1,1,L,G1,Y,2/22/2020,10:48:39,4017
62,8,7,K1,B1,K1,2,R,K1,Y,2/22/2020,10:48:39,4758
62,8,8,H1,D1,H1,1,R,H1,Y,2/22/2020,10:48:39,7209
62,8,9,C1,A1,C1,2,R,C1,Y,2/22/2020,10:48:39,2832
23,5,0,K1,K1,D1,2,L,K1,Y,2/22/2020,10:59:04,21099
23,5,1,C1,C1,H1,1,L,C1,Y,2/22/2020,10:59:04,7122
23,5,2,E1,E1,A1,1,L,E1,Y,2/22/2020,10:59:04,7723
23,5,3,A1,A1,K1,1,L,A1,Y,2/22/2020,10:59:04,4488
23,5,4,I1,A1,I1,2,R,I1,Y,2/22/2020,10:59:04,4307
23,5,5,F1,K1,F1,2,R,F1,Y,2/22/2020,10:59:04,5630
23,5,6,H1,H1,D1,2,L,H1,Y,2/22/2020,10:59:04,3293
23,5,7,G1,D1,G1,2,R,G1,Y,2/22/2020,10:59:04,3638
23,5,8,D1,F1,D1,1,R,D1,Y,2/22/2020,10:59:04,4969
23,5,9,B1,B1,I1,1,L,B1,Y,2/22/2020,10:59:04,4350
24,4,0,C1,C1,A1,1,R,A1,N,2/22/2020,11:01:44,5441
24,4,1,G1,G1,E1,2,R,E1,N,2/22/2020,11:01:44,2352
24,4,2,K1,K1,B1,1,L,K1,Y,2/22/2020,11:01:44,3913
24,4,3,D1,H1,D1,2,R,D1,Y,2/22/2020,11:01:44,1975
24,4,4,A1,A1,H1,1,R,H1,N,2/22/2020,11:01:44,3729
24,4,5,H1,A1,H1,2,L,A1,N,2/22/2020,11:01:44,2562
24,4,6,F1,F1,C1,2,L,F1,Y,2/22/2020,11:01:44,4127
24,4,7,I1,E1,I1,1,L,E1,N,2/22/2020,11:01:44,3912
24,4,8,E1,I1,E1,2,L,I1,N,2/22/2020,11:01:44,2534
24,4,9,B1,D1,B1,1,L,D1,N,2/22/2020,11:01:44,1889
25,6,0,A1,K1,A1,2,L,K1,N,2/22/2020,12:55:20,36956
25,,0,F1,C1,F1,1,R,F1,Y,2/22/2020,12:56:22,1762
25,6,0,G1,G1,D1,1,L,G1,Y,2/22/2020,12:56:37,9727
25,6,1,I1,I1,A1,1,L,I1,Y,2/22/2020,12:56:37,4183
25,6,2,E1,A1,E1,2,L,A1,N,2/22/2020,12:56:37,5132
25,6,3,K1,K1,F1,1,L,K1,Y,2/22/2020,12:56:37,6657
25,6,4,H1,A1,H1,1,L,A1,N,2/22/2020,12:56:37,4556
25,6,5,B1,C1,B1,2,R,B1,Y,2/22/2020,12:56:37,2316
25,6,6,D1,D1,K1,2,L,D1,Y,2/22/2020,12:56:37,4588
25,6,7,A1,K1,A1,2,R,A1,Y,2/22/2020,12:56:37,3018
25,6,8,F1,C1,F1,1,R,F1,Y,2/22/2020,12:56:37,2159
25,6,9,C1,I1,C1,2,R,C1,Y,2/22/2020,12:56:37,3387
26,8,0,F1,F1,G1,1,R,G1,N,2/22/2020,12:59:59,18233
26,8,0,F1,G1,F1,1,R,F1,Y,2/22/2020,13:06:27,5708
26,8,1,G1,G1,D1,1,L,G1,Y,2/22/2020,13:06:27,2324
26,8,2,A1,A1,I1,2,L,A1,Y,2/22/2020,13:06:27,4671
26,8,3,H1,H1,E1,1,L,H1,Y,2/22/2020,13:06:27,4616
26,8,4,B1,I1,B1,2,R,B1,Y,2/22/2020,13:06:27,2606
26,8,5,K1,K1,D1,2,L,K1,Y,2/22/2020,13:06:27,4609
26,8,6,I1,I1,C1,2,L,I1,Y,2/22/2020,13:06:27,2312
26,8,7,C1,C1,H1,2,L,C1,Y,2/22/2020,13:06:27,4807
26,8,8,E1,H1,E1,1,R,E1,Y,2/22/2020,13:06:27,4557
27,5,0,A1,H1,A1,1,L,H1,N,2/22/2020,13:07:57,21267
27,5,1,I1,I1,E1,2,L,I1,Y,2/22/2020,13:07:57,4535
27,5,2,B1,B1,K1,1,L,B1,Y,2/22/2020,13:07:57,4631
27,5,3,D1,D1,H1,1,L,D1,Y,2/22/2020,13:07:57,3359
27,5,4,E1,I1,E1,1,R,E1,Y,2/22/2020,13:07:57,4840
27,5,5,F1,G1,F1,2,L,G1,N,2/22/2020,13:07:57,5587
27,5,6,G1,G1,D1,2,R,D1,N,2/22/2020,13:07:57,3609
27,5,7,K1,A1,K1,2,L,A1,N,2/22/2020,13:07:57,4217
27,5,8,H1,H1,C1,2,L,H1,Y,2/22/2020,13:07:57,6589
27,5,9,C1,I1,C1,1,R,C1,Y,2/22/2020,13:07:57,3651
28,7,0,H1,H1,D1,2,R,D1,N,2/22/2020,13:10:38,39760
28,7,0,A1,I1,A1,1,L,I1,N,2/22/2020,13:14:23,3380
28,7,1,H1,D1,H1,2,R,H1,Y,2/22/2020,13:14:23,3167
28,7,2,D1,D1,K1,2,L,D1,Y,2/22/2020,13:14:23,2557
28,7,3,C1,C1,H1,1,L,C1,Y,2/22/2020,13:14:23,2239
28,7,4,I1,A1,I1,1,R,I1,Y,2/22/2020,13:14:23,3584
28,7,5,G1,G1,E1,2,R,E1,N,2/22/2020,13:14:23,3993
28,7,6,E1,E1,H1,2,L,E1,Y,2/22/2020,13:14:23,1818
28,7,7,F1,F1,C1,2,L,F1,Y,2/22/2020,13:14:23,1950
28,7,8,B1,B1,C1,1,L,B1,Y,2/22/2020,13:14:23,3518
28,7,9,K1,K1,B1,1,L,K1,Y,2/22/2020,13:14:23,4159
29,5,1,A1,H1,A1,2,R,A1,Y,2/22/2020,13:17:28,3409
29,5,0,G1,C1,G1,1,R,G1,Y,2/22/2020,13:17:28,4968
29,5,2,E1,E1,I1,2,L,E1,Y,2/22/2020,13:17:28,3186
29,5,3,D1,D1,K1,2,L,D1,Y,2/22/2020,13:17:28,3237
29,5,4,F1,K1,F1,1,R,F1,Y,2/22/2020,13:17:28,5217
29,5,5,H1,H1,E1,1,L,H1,Y,2/22/2020,13:17:28,6275
29,5,6,B1,I1,B1,2,R,B1,Y,2/22/2020,13:17:28,3685
29,5,7,I1,I1,C1,1,R,C1,N,2/22/2020,13:17:28,6936
29,5,8,K1,B1,K1,1,R,K1,Y,2/22/2020,13:17:28,3978
29,5,9,C1,E1,C1,2,L,E1,N,2/22/2020,13:17:28,4882
29,6,0,F1,K1,F1,1,L,K1,N,2/22/2020,13:38:42,7738
29,6,1,K1,B1,K1,1,R,K1,Y,2/22/2020,13:38:42,5034
29,6,2,D1,K1,D1,2,R,D1,Y,2/22/2020,13:38:42,3283
29,6,3,G1,C1,G1,1,R,G1,Y,2/22/2020,13:38:42,3252
30,6,0,H1,C1,H1,1,R,H1,Y,2/22/2020,13:39:42,4778
30,6,1,K1,B1,K1,2,R,K1,Y,2/22/2020,13:39:42,3547
30,6,2,E1,A1,E1,1,L,A1,N,2/22/2020,13:39:42,3457
30,6,3,C1,C1,I1,2,L,C1,Y,2/22/2020,13:39:42,3188
30,6,4,I1,B1,I1,2,R,I1,Y,2/22/2020,13:39:42,3634
30,6,5,D1,E1,D1,1,R,D1,Y,2/22/2020,13:39:42,5038
30,6,6,G1,G1,D1,1,L,G1,Y,2/22/2020,13:39:42,3087
30,6,7,A1,H1,A1,2,R,A1,Y,2/22/2020,13:39:42,3185
30,6,8,F1,F1,C1,1,L,F1,Y,2/22/2020,13:39:42,2244
30,6,9,B1,B1,K1,2,L,B1,Y,2/22/2020,13:39:42,2517
31,8,0,G1,C1,G1,2,L,C1,N,2/22/2020,13:44:44,11399
31,8,2,K1,K1,D1,2,L,K1,Y,2/22/2020,13:44:44,2963
31,8,1,E1,E1,A1,1,R,A1,N,2/22/2020,13:44:44,3682
31,8,3,I1,I1,E1,2,R,E1,N,2/22/2020,13:44:44,8287
31,8,4,B1,C1,B1,1,R,B1,Y,2/22/2020,13:44:44,2606
31,8,5,A1,A1,D1,1,L,A1,Y,2/22/2020,13:44:44,2916
31,8,6,C1,C1,A1,1,L,C1,Y,2/22/2020,13:44:44,3009
31,8,7,D1,D1,H1,1,L,D1,Y,2/22/2020,13:44:44,4403
31,8,8,H1,C1,H1,2,L,C1,N,2/22/2020,13:44:44,2783
31,8,9,F1,G1,F1,2,R,F1,Y,2/22/2020,13:44:44,4845
32,7,0,G1,K1,G1,2,L,K1,N,2/22/2020,13:49:25,13780
32,7,1,D1,E1,D1,2,R,D1,Y,2/22/2020,13:49:25,3722
32,7,2,H1,D1,H1,2,R,H1,Y,2/22/2020,13:49:25,3559
32,7,3,E1,I1,E1,2,R,E1,Y,2/22/2020,13:49:25,1989
32,7,4,B1,I1,B1,1,L,I1,N,2/22/2020,13:49:25,11663
32,7,5,C1,C1,I1,1,R,I1,N,2/22/2020,13:49:25,4449
32,7,6,F1,F1,C1,2,L,F1,Y,2/22/2020,13:49:25,2334
32,7,7,I1,A1,I1,1,R,I1,Y,2/22/2020,13:49:25,4698
32,7,8,A1,A1,I1,1,R,I1,N,2/22/2020,13:49:25,3599
32,7,9,K1,F1,K1,1,R,K1,Y,2/22/2020,13:49:25,5019
33,4,0,H1,H1,C1,1,L,H1,Y,2/22/2020,13:53:59,10360
33,4,1,E1,H1,E1,2,R,E1,Y,2/22/2020,13:53:59,5692
33,4,2,G1,E1,G1,1,R,G1,Y,2/22/2020,13:53:59,3522
33,4,4,I1,I1,C1,1,L,I1,Y,2/22/2020,13:53:59,3768
33,4,5,K1,F1,K1,1,R,K1,Y,2/22/2020,13:53:59,3457
33,4,6,C1,I1,C1,2,R,C1,Y,2/22/2020,13:53:59,2577
33,4,7,F1,C1,F1,1,R,F1,Y,2/22/2020,13:53:59,2973
33,4,8,B1,B1,D1,2,R,D1,N,2/22/2020,13:53:59,3186
33,4,9,D1,D1,F1,2,R,F1,N,2/22/2020,13:53:59,2818
34,5,0,K1,K1,D1,2,L,K1,Y,2/22/2020,13:58:27,5988
34,5,1,G1,K1,G1,1,R,G1,Y,2/22/2020,13:58:27,3408
34,5,2,A1,D1,A1,2,R,A1,Y,2/22/2020,13:58:27,3742
34,5,3,H1,H1,E1,1,R,E1,N,2/22/2020,13:58:27,3880
34,5,4,I1,I1,A1,2,L,I1,Y,2/22/2020,13:58:27,3083
34,5,5,F1,K1,F1,1,R,F1,Y,2/22/2020,13:58:27,3158
34,5,6,D1,D1,E1,1,L,D1,Y,2/22/2020,13:58:27,5394
34,5,7,B1,I1,B1,2,R,B1,Y,2/22/2020,13:58:27,3475
34,5,8,E1,B1,E1,1,R,E1,Y,2/22/2020,13:58:27,2589
34,5,9,C1,C1,H1,2,L,C1,Y,2/22/2020,13:58:27,4256
35,7,0,C1,C1,E1,1,L,C1,Y,2/22/2020,14:02:51,6404
35,7,1,K1,B1,K1,2,R,K1,Y,2/22/2020,14:02:51,4964
35,7,2,I1,C1,I1,2,R,I1,Y,2/22/2020,14:02:51,3726
35,7,3,A1,K1,A1,1,R,A1,Y,2/22/2020,14:02:51,16008
35,7,4,F1,F1,B1,2,L,F1,Y,2/22/2020,14:02:51,9587
35,7,5,B1,K1,B1,1,R,B1,Y,2/22/2020,14:02:51,6274
35,7,6,D1,D1,F1,1,L,D1,Y,2/22/2020,14:02:51,7888
35,7,7,E1,H1,E1,1,R,E1,Y,2/22/2020,14:02:51,3208
35,7,8,H1,H1,C1,2,L,H1,Y,2/22/2020,14:02:51,10336
35,7,9,G1,K1,G1,2,L,K1,N,2/22/2020,14:02:51,8731
36,7,0,H1,H1,D1,2,L,H1,Y,2/22/2020,14:23:18,20322
36,7,1,G1,K1,G1,2,R,G1,Y,2/22/2020,14:23:18,3585
36,7,2,F1,G1,F1,2,R,F1,Y,2/22/2020,14:23:18,3476
36,7,3,D1,H1,D1,2,R,D1,Y,2/22/2020,14:23:18,3185
36,7,4,A1,K1,A1,1,L,K1,N,2/22/2020,14:23:18,8369
36,7,6,B1,B1,C1,1,L,B1,Y,2/22/2020,14:23:18,3139
36,7,5,I1,A1,I1,1,L,A1,N,2/22/2020,14:23:18,3290
36,7,7,E1,E1,A1,2,R,A1,N,2/22/2020,14:23:18,3918
36,7,8,C1,I1,C1,1,R,C1,Y,2/22/2020,14:23:18,2404
36,7,9,K1,A1,K1,1,R,K1,Y,2/22/2020,14:23:18,3861
37,8,0,H1,A1,H1,1,R,H1,Y,2/22/2020,14:28:05,5484
37,8,0,F1,F1,C1,1,L,F1,Y,2/22/2020,14:29:09,5466
37,8,1,H1,H1,A1,1,L,H1,Y,2/22/2020,14:29:09,5612
37,8,2,A1,H1,A1,2,R,A1,Y,2/22/2020,14:29:09,2669
37,8,3,D1,D1,F1,2,L,D1,Y,2/22/2020,14:29:09,5426
37,8,4,G1,G1,C1,1,L,G1,Y,2/22/2020,14:29:09,5864
37,8,5,I1,I1,A1,1,L,I1,Y,2/22/2020,14:29:09,3707
37,8,6,E1,I1,E1,2,R,E1,Y,2/22/2020,14:29:09,2286
37,8,7,B1,D1,B1,2,R,B1,Y,2/22/2020,14:29:09,2401
37,8,8,C1,C1,E1,2,L,C1,Y,2/22/2020,14:29:09,3127
37,8,9,K1,D1,K1,1,R,K1,Y,2/22/2020,14:29:09,2758
38,0,0,K1,F1,K1,2,R,K1,Y,2/22/2020,14:31:10,17697
38,0,0,F1,G1,F1,1,R,F1,Y,2/22/2020,14:32:50,13641
38,0,0,A1,K1,A1,2,L,K1,N,2/22/2020,14:33:21,9297
38,0,0,C1,C1,H1,2,R,H1,N,2/22/2020,14:34:24,3234
38,0,1,B1,B1,C1,2,R,C1,N,2/22/2020,14:37:51,3182
38,0,2,E1,E1,H1,1,L,E1,Y,2/22/2020,14:37:51,4457
38,0,3,K1,K1,F1,2,L,K1,Y,2/22/2020,14:37:51,5201
38,0,0,F1,G1,F1,1,L,G1,N,2/22/2020,14:38:32,2345
38,0,1,E1,H1,E1,1,R,E1,Y,2/22/2020,14:38:32,4738
38,0,2,H1,H1,E1,1,R,E1,N,2/22/2020,14:38:32,5263
38,0,3,A1,A1,K1,2,L,A1,Y,2/22/2020,14:38:32,1971
38,0,4,I1,E1,I1,2,R,I1,Y,2/22/2020,14:38:32,5038
39,0,0,C1,C1,E1,1,L,C1,Y,2/22/2020,14:39:18,3207
39,0,1,A1,K1,A1,1,R,A1,Y,2/22/2020,14:39:18,5147
39,0,2,F1,B1,F1,2,R,F1,Y,2/22/2020,14:39:18,1790
38,4,0,D1,D1,E1,1,R,E1,N,2/22/2020,14:40:39,8852
38,4,1,H1,E1,H1,1,L,E1,N,2/22/2020,14:40:39,2669
38,4,2,G1,G1,K1,1,L,G1,Y,2/22/2020,14:40:39,4097
38,4,4,B1,C1,B1,2,R,B1,Y,2/22/2020,14:40:39,3929
38,4,5,K1,K1,F1,2,R,F1,N,2/22/2020,14:40:39,5398
38,4,6,I1,E1,I1,2,R,I1,Y,2/22/2020,14:40:39,4489
38,4,7,E1,E1,H1,1,L,E1,Y,2/22/2020,14:40:39,4542
38,4,8,C1,C1,H1,2,L,C1,Y,2/22/2020,14:40:39,2675
38,4,9,F1,F1,G1,1,R,G1,N,2/22/2020,14:40:39,2372
39,6,0,I1,A1,I1,2,R,I1,Y,2/22/2020,14:44:04,5081
39,6,1,B1,B1,K1,1,L,B1,Y,2/22/2020,14:44:04,3716
39,6,2,H1,H1,E1,2,R,E1,N,2/22/2020,14:44:04,4176
39,6,3,E1,B1,E1,1,L,B1,N,2/22/2020,14:44:04,4486
39,6,4,C1,C1,E1,1,L,C1,Y,2/22/2020,14:44:04,3465
39,6,5,D1,E1,D1,1,L,E1,N,2/22/2020,14:44:04,3762
39,6,6,K1,K1,B1,2,L,K1,Y,2/22/2020,14:44:04,2820
39,6,7,F1,B1,F1,2,R,F1,Y,2/22/2020,14:44:04,2573
39,6,8,A1,K1,A1,1,R,A1,Y,2/22/2020,14:44:04,2848
39,6,9,G1,C1,G1,2,L,C1,N,2/22/2020,14:44:04,2640
40,8,0,A1,A1,I1,1,R,I1,N,2/22/2020,14:52:59,7675
40,8,1,F1,F1,G1,2,L,F1,Y,2/22/2020,14:52:59,9375
40,8,3,I1,I1,B1,1,L,I1,Y,2/22/2020,14:52:59,5278
40,8,6,K1,K1,F1,1,L,K1,Y,2/22/2020,14:52:59,5010
40,8,5,B1,B1,D1,1,L,B1,Y,2/22/2020,14:52:59,3916
40,8,4,E1,E1,B1,2,L,E1,Y,2/22/2020,14:52:59,4949
40,8,7,D1,D1,K1,2,L,D1,Y,2/22/2020,14:52:59,14326
40,8,8,C1,C1,E1,1,L,C1,Y,2/22/2020,14:52:59,4646
40,8,9,G1,E1,G1,2,R,G1,Y,2/22/2020,14:52:59,2339
41,6,0,F1,F1,B1,1,L,F1,Y,2/22/2020,14:55:00,4109
41,6,1,B1,K1,B1,2,R,B1,Y,2/22/2020,14:55:00,2752
41,6,2,H1,H1,D1,1,L,H1,Y,2/22/2020,14:55:00,4278
41,6,3,E1,E1,H1,2,L,E1,Y,2/22/2020,14:55:00,2473
41,6,4,C1,A1,C1,2,R,C1,Y,2/22/2020,14:55:00,3019
41,6,5,I1,C1,I1,1,R,I1,Y,2/22/2020,14:55:00,3429
41,6,6,A1,A1,H1,2,L,A1,Y,2/22/2020,14:55:00,1571
41,6,7,K1,B1,K1,1,R,K1,Y,2/22/2020,14:55:00,3185
41,6,8,G1,G1,C1,1,L,G1,Y,2/22/2020,14:55:00,3686
41,6,9,D1,H1,D1,2,R,D1,Y,2/22/2020,14:55:00,3306
42,7,0,G1,G1,K1,1,R,K1,N,2/22/2020,14:59:43,8308
42,7,1,D1,F1,D1,1,R,D1,Y,2/22/2020,14:59:43,4597
42,7,2,E1,E1,I1,1,L,E1,Y,2/22/2020,14:59:43,2206
42,7,3,K1,K1,F1,2,L,K1,Y,2/22/2020,14:59:43,5267
42,7,4,H1,A1,H1,1,R,H1,Y,2/22/2020,14:59:43,3590
42,7,5,C1,C1,H1,2,L,C1,Y,2/22/2020,14:59:43,2619
42,7,6,A1,I1,A1,2,R,A1,Y,2/22/2020,14:59:43,1691
42,7,7,F1,B1,F1,1,R,F1,Y,2/22/2020,14:59:43,3261
42,7,8,I1,I1,B1,2,L,I1,Y,2/22/2020,14:59:43,2674
42,7,9,B1,B1,K1,2,L,B1,Y,2/22/2020,14:59:43,3811
43,7,0,G1,G1,C1,2,R,C1,N,3/4/2020,12:51:48,5025
43,7,1,A1,K1,A1,1,R,A1,Y,3/4/2020,12:51:48,4992
43,7,2,B1,K1,B1,1,R,B1,Y,3/4/2020,12:51:48,2471
43,7,3,D1,D1,H1,1,L,D1,Y,3/4/2020,12:51:48,2790
43,7,4,I1,E1,I1,2,R,I1,Y,3/4/2020,12:51:48,3674
43,7,5,C1,H1,C1,1,R,C1,Y,3/4/2020,12:51:48,3622
43,7,6,E1,E1,H1,1,R,H1,N,3/4/2020,12:51:48,5323
43,7,7,H1,D1,H1,2,R,H1,Y,3/4/2020,12:51:48,2274
43,7,8,F1,K1,F1,2,R,F1,Y,3/4/2020,12:51:48,3008
43,7,9,K1,K1,A1,2,L,K1,Y,3/4/2020,12:51:48,5342
44,7,0,A1,A1,H1,1,L,A1,Y,3/4/2020,12:54:51,3267
44,7,1,G1,G1,C1,2,L,G1,Y,3/4/2020,12:54:51,4888
44,7,2,C1,C1,A1,1,L,C1,Y,3/4/2020,12:54:51,3256
44,7,3,F1,F1,G1,2,L,F1,Y,3/4/2020,12:54:51,4824
44,7,4,B1,B1,C1,1,L,B1,Y,3/4/2020,12:54:51,4488
44,7,5,I1,I1,C1,1,L,I1,Y,3/4/2020,12:54:51,4659
44,7,6,D1,E1,D1,2,L,E1,N,3/4/2020,12:54:51,3105
44,7,7,H1,E1,H1,2,R,H1,Y,3/4/2020,12:54:51,3690
44,7,8,K1,K1,D1,1,L,K1,Y,3/4/2020,12:54:51,5674
44,7,9,E1,E1,I1,2,L,E1,Y,3/4/2020,12:54:51,5223
45,7,0,G1,D1,G1,1,R,G1,Y,3/4/2020,12:57:25,8438
45,7,1,B1,K1,B1,2,R,B1,Y,3/4/2020,12:57:25,4521
45,7,2,C1,I1,C1,2,R,C1,Y,3/4/2020,12:57:25,4873
45,7,3,F1,B1,F1,1,R,F1,Y,3/4/2020,12:57:25,7990
45,7,4,K1,K1,A1,1,L,K1,Y,3/4/2020,12:57:25,5093
45,7,5,A1,D1,A1,2,L,D1,N,3/4/2020,12:57:25,7757
45,7,6,H1,H1,E1,1,L,H1,Y,3/4/2020,12:57:25,3725
45,7,7,D1,D1,K1,2,L,D1,Y,3/4/2020,12:57:25,9042
45,7,8,E1,E1,H1,2,L,E1,Y,3/4/2020,12:57:25,3007
45,7,9,I1,A1,I1,1,R,I1,Y,3/4/2020,12:57:25,3791
46,7,0,B1,K1,B1,2,R,B1,Y,3/4/2020,12:59:32,5367
46,7,1,E1,B1,E1,1,R,E1,Y,3/4/2020,12:59:32,3909
46,7,2,K1,D1,K1,2,L,D1,N,3/4/2020,12:59:32,4156
46,7,3,F1,K1,F1,1,R,F1,Y,3/4/2020,12:59:32,3656
46,7,4,I1,A1,I1,2,R,I1,Y,3/4/2020,12:59:32,3348
46,7,5,A1,A1,H1,2,L,A1,Y,3/4/2020,12:59:32,5192
46,7,6,C1,A1,C1,2,R,C1,Y,3/4/2020,12:59:32,1857
46,7,7,H1,E1,H1,1,R,H1,Y,3/4/2020,12:59:32,4823
46,7,8,D1,D1,F1,1,L,D1,Y,3/4/2020,12:59:32,4000
46,7,9,G1,D1,G1,1,R,G1,Y,3/4/2020,12:59:32,3004
47,8,0,G1,G1,C1,2,L,G1,Y,3/4/2020,13:01:46,7015
47,8,1,I1,C1,I1,2,R,I1,Y,3/4/2020,13:01:46,3826
47,8,2,D1,E1,D1,1,R,D1,Y,3/4/2020,13:01:46,3490
47,8,3,H1,H1,A1,2,L,H1,Y,3/4/2020,13:01:46,5275
47,8,4,F1,F1,G1,2,R,G1,N,3/4/2020,13:01:46,3958
47,8,5,K1,A1,K1,2,R,K1,Y,3/4/2020,13:01:46,3055
47,8,6,C1,A1,C1,1,R,C1,Y,3/4/2020,13:01:46,5873
47,8,7,A1,A1,H1,1,L,A1,Y,3/4/2020,13:01:46,2792
47,8,8,E1,E1,B1,1,R,B1,N,3/4/2020,13:01:46,4559
47,8,9,B1,K1,B1,1,R,B1,Y,3/4/2020,13:01:46,3609
48,8,0,E1,A1,E1,2,R,E1,Y,3/4/2020,13:04:13,3687
48,8,1,I1,B1,I1,1,R,I1,Y,3/4/2020,13:04:13,3936
48,8,2,B1,K1,B1,1,L,K1,N,3/4/2020,13:04:13,8038
48,8,3,G1,D1,G1,2,R,G1,Y,3/4/2020,13:04:13,4307
48,8,4,F1,F1,K1,2,L,F1,Y,3/4/2020,13:04:13,7422
48,8,5,C1,C1,H1,1,L,C1,Y,3/4/2020,13:04:13,4089
48,8,6,K1,K1,A1,1,L,K1,Y,3/4/2020,13:04:13,3490
48,8,7,D1,E1,D1,2,L,E1,N,3/4/2020,13:04:13,6052
48,8,8,H1,H1,E1,2,L,H1,Y,3/4/2020,13:04:13,4128
48,8,9,A1,D1,A1,1,R,A1,Y,3/4/2020,13:04:13,3676
49,7,0,B1,B1,I1,2,L,B1,Y,3/4/2020,13:06:30,2628
49,7,1,D1,K1,D1,2,R,D1,Y,3/4/2020,13:06:30,3609
49,7,2,H1,E1,H1,1,L,E1,N,3/4/2020,13:06:30,5989
49,7,3,K1,D1,K1,1,R,K1,Y,3/4/2020,13:06:30,2836
49,7,4,C1,C1,I1,2,L,C1,Y,3/4/2020,13:06:30,2340
49,7,5,I1,I1,B1,1,L,I1,Y,3/4/2020,13:06:30,3188
49,7,6,E1,E1,H1,2,L,E1,Y,3/4/2020,13:06:30,2758
49,7,7,A1,D1,A1,2,R,A1,Y,3/4/2020,13:06:30,3039
49,7,8,F1,C1,F1,1,R,F1,Y,3/4/2020,13:06:30,4708
49,7,9,G1,D1,G1,1,R,G1,Y,3/4/2020,13:06:30,5389
50,7,0,K1,K1,B1,2,L,K1,Y,3/4/2020,13:08:21,6098
50,7,1,A1,A1,H1,2,L,A1,Y,3/4/2020,13:08:21,2706
50,7,2,G1,C1,G1,1,L,C1,N,3/4/2020,13:08:21,2173
50,7,3,C1,I1,C1,2,R,C1,Y,3/4/2020,13:08:21,2806
50,7,4,B1,B1,I1,2,L,B1,Y,3/4/2020,13:08:21,3489
50,7,5,D1,H1,D1,1,R,D1,Y,3/4/2020,13:08:21,2056
50,7,6,H1,A1,H1,1,L,A1,N,3/4/2020,13:08:21,2375
50,7,7,F1,B1,F1,1,R,F1,Y,3/4/2020,13:08:21,2960
50,7,8,I1,I1,E1,2,L,I1,Y,3/4/2020,13:08:21,1957
50,7,9,E1,E1,H1,1,L,E1,Y,3/4/2020,13:08:21,2992
51,7,0,I1,A1,I1,2,R,I1,Y,3/5/2020,14:05:57,16806
51,7,1,D1,K1,D1,1,R,D1,Y,3/5/2020,14:05:57,3631
51,7,2,F1,F1,B1,2,L,F1,Y,3/5/2020,14:05:57,4657
51,7,3,G1,K1,G1,2,R,G1,Y,3/5/2020,14:05:57,4274
51,7,4,B1,B1,K1,1,R,K1,N,3/5/2020,14:05:57,7309
51,7,5,K1,F1,K1,2,R,K1,Y,3/5/2020,14:05:57,4389
51,7,6,E1,E1,B1,1,R,B1,N,3/5/2020,14:05:57,5240
51,7,7,H1,A1,H1,2,R,H1,Y,3/5/2020,14:05:57,2427
51,7,8,A1,A1,H1,1,L,A1,Y,3/5/2020,14:05:57,2475
51,7,9,C1,H1,C1,1,R,C1,Y,3/5/2020,14:05:57,6009
52,8,0,H1,D1,H1,2,R,H1,Y,3/5/2020,14:10:32,4300
52,8,1,E1,E1,B1,2,R,B1,N,3/5/2020,14:10:32,4218
52,8,2,C1,C1,I1,1,L,C1,Y,3/5/2020,14:10:32,5920
52,8,3,D1,K1,D1,2,R,D1,Y,3/5/2020,14:10:32,4424
52,8,4,F1,K1,F1,2,R,F1,Y,3/5/2020,14:10:32,4255
52,8,5,K1,A1,K1,1,R,K1,Y,3/5/2020,14:10:32,5690
52,8,6,B1,B1,D1,1,L,B1,Y,3/5/2020,14:10:32,3490
52,8,7,G1,G1,K1,2,L,G1,Y,3/5/2020,14:10:32,2955
52,8,8,A1,A1,D1,1,L,A1,Y,3/5/2020,14:10:32,5424
52,8,9,I1,C1,I1,1,R,I1,Y,3/5/2020,14:10:32,3758
53,8,0,E1,E1,A1,2,L,E1,Y,3/5/2020,14:12:43,5565
53,8,1,H1,H1,E1,1,L,H1,Y,3/5/2020,14:12:43,5769
53,8,2,G1,D1,G1,1,R,G1,Y,3/5/2020,14:12:43,3271
53,8,3,F1,B1,F1,1,R,F1,Y,3/5/2020,14:12:43,7906
53,8,4,A1,I1,A1,2,R,A1,Y,3/5/2020,14:12:43,2978
53,8,5,C1,C1,E1,2,L,C1,Y,3/5/2020,14:12:43,3805
53,8,6,K1,D1,K1,1,R,K1,Y,3/5/2020,14:12:43,7308
53,8,7,B1,D1,B1,2,R,B1,Y,3/5/2020,14:12:43,3741
53,8,8,D1,D1,F1,2,L,D1,Y,3/5/2020,14:12:43,2559
53,8,9,I1,A1,I1,1,R,I1,Y,3/5/2020,14:12:43,9491
55,8,0,A1,A1,H1,1,R,H1,N,3/5/2020,14:15:07,5006
55,8,1,F1,K1,F1,2,R,F1,Y,3/5/2020,14:15:07,3713
55,8,2,H1,H1,D1,2,L,H1,Y,3/5/2020,14:15:07,2441
55,8,3,K1,K1,F1,2,L,K1,Y,3/5/2020,14:15:07,3691
55,8,4,E1,B1,E1,1,R,E1,Y,3/5/2020,14:15:07,3139
55,8,5,D1,D1,E1,1,L,D1,Y,3/5/2020,14:15:07,2990
55,8,6,B1,B1,C1,1,L,B1,Y,3/5/2020,14:15:07,4054
55,8,7,I1,I1,A1,2,L,I1,Y,3/5/2020,14:15:07,3941
55,8,8,C1,C1,I1,1,L,C1,Y,3/5/2020,14:15:07,5042
55,8,9,G1,K1,G1,2,R,G1,Y,3/5/2020,14:15:07,3539
54,7,0,C1,C1,I1,2,L,C1,Y,3/5/2020,14:17:54,4819
54,7,1,I1,E1,I1,2,R,I1,Y,3/5/2020,14:17:54,3603
54,7,2,B1,K1,B1,2,R,B1,Y,3/5/2020,14:17:54,2574
54,7,3,D1,D1,H1,1,L,D1,Y,3/5/2020,14:17:54,4240
54,7,4,G1,C1,G1,1,R,G1,Y,3/5/2020,14:17:54,3589
54,7,5,A1,A1,K1,2,L,A1,Y,3/5/2020,14:17:54,2790
54,7,6,E1,H1,E1,1,R,E1,Y,3/5/2020,14:17:54,4006
54,7,7,H1,C1,H1,1,R,H1,Y,3/5/2020,14:17:54,8475
54,7,8,F1,F1,K1,1,L,F1,Y,3/5/2020,14:17:54,4857
54,7,9,K1,D1,K1,2,R,K1,Y,3/5/2020,14:17:54,6477
56,7,0,B1,B1,D1,1,L,B1,Y,3/5/2020,14:20:27,2529
56,7,1,H1,H1,E1,2,L,H1,Y,3/5/2020,14:20:27,2620
56,7,2,K1,A1,K1,1,R,K1,Y,3/5/2020,14:20:27,4954
56,7,3,F1,F1,B1,2,L,F1,Y,3/5/2020,14:20:27,5208
56,7,4,G1,G1,E1,2,R,E1,N,3/5/2020,14:20:27,4488
56,7,5,C1,H1,C1,1,L,H1,N,3/5/2020,14:20:27,4371
56,7,6,E1,E1,H1,2,L,E1,Y,3/5/2020,14:20:27,3107
56,7,7,A1,A1,I1,1,L,A1,Y,3/5/2020,14:20:27,3925
56,7,8,I1,A1,I1,1,R,I1,Y,3/5/2020,14:20:27,4834
56,7,9,D1,K1,D1,2,R,D1,Y,3/5/2020,14:20:27,2691
57,8,0,K1,K1,B1,1,L,K1,Y,3/5/2020,14:22:50,5087
57,8,1,E1,E1,H1,2,L,E1,Y,3/5/2020,14:22:50,3895
57,8,2,H1,H1,A1,1,L,H1,Y,3/5/2020,14:22:50,2907
57,8,3,F1,F1,C1,1,L,F1,Y,3/5/2020,14:22:50,3241
57,8,4,G1,G1,K1,1,L,G1,Y,3/5/2020,14:22:50,6990
57,8,5,A1,A1,I1,2,L,A1,Y,3/5/2020,14:22:50,3375
57,8,6,D1,E1,D1,2,R,D1,Y,3/5/2020,14:22:50,7240
57,8,7,I1,B1,I1,1,R,I1,Y,3/5/2020,14:22:50,3249
57,8,8,B1,K1,B1,2,L,K1,N,3/5/2020,14:22:50,3009
57,8,9,C1,C1,I1,2,L,C1,Y,3/5/2020,14:22:50,3373
58,7,0,D1,E1,D1,1,R,D1,Y,3/5/2020,14:25:20,3829
58,7,1,H1,H1,A1,1,L,H1,Y,3/5/2020,14:25:20,6109
58,7,2,G1,E1,G1,1,R,G1,Y,3/5/2020,14:25:20,5355
58,7,3,C1,I1,C1,2,R,C1,Y,3/5/2020,14:25:20,2156
58,7,4,F1,F1,K1,1,R,K1,N,3/5/2020,14:25:20,5054
58,7,5,K1,A1,K1,2,R,K1,Y,3/5/2020,14:25:20,2303
58,7,6,E1,E1,B1,1,L,E1,Y,3/5/2020,14:25:20,3224
58,7,7,B1,B1,I1,2,L,B1,Y,3/5/2020,14:25:20,3625
58,7,8,A1,A1,K1,2,L,A1,Y,3/5/2020,14:25:20,2173
58,7,9,I1,B1,I1,2,R,I1,Y,3/5/2020,14:25:20,2176
59,8,0,H1,H1,D1,2,L,H1,Y,3/5/2020,14:27:16,6097
59,8,1,I1,B1,I1,2,R,I1,Y,3/5/2020,14:27:16,3993
59,8,2,D1,D1,H1,1,R,H1,N,3/5/2020,14:27:16,2951
59,8,3,B1,B1,I1,1,L,B1,Y,3/5/2020,14:27:16,6624
59,8,4,K1,K1,B1,2,L,K1,Y,3/5/2020,14:27:16,3708
59,8,5,G1,G1,C1,2,L,G1,Y,3/5/2020,14:27:16,4937
59,8,6,F1,F1,G1,2,L,F1,Y,3/5/2020,14:27:16,4492
59,8,7,E1,E1,A1,1,L,E1,Y,3/5/2020,14:27:16,4941
59,8,8,A1,A1,D1,1,L,A1,Y,3/5/2020,14:27:16,3541
59,8,9,C1,H1,C1,1,R,C1,Y,3/5/2020,14:27:16,3426
60,7,0,G1,G1,K1,2,L,G1,Y,3/5/2020,14:30:49,13334
60,7,1,E1,B1,E1,2,R,E1,Y,3/5/2020,14:30:49,4502
60,7,2,H1,D1,H1,2,R,H1,Y,3/5/2020,14:30:49,4206
60,7,3,B1,B1,K1,1,L,B1,Y,3/5/2020,14:30:49,2790
60,7,4,K1,K1,D1,1,L,K1,Y,3/5/2020,14:30:49,5858
60,7,5,C1,E1,C1,1,R,C1,Y,3/5/2020,14:30:49,3606
60,7,6,A1,H1,A1,1,R,A1,Y,3/5/2020,14:30:49,3609
60,7,7,I1,I1,B1,1,L,I1,Y,3/5/2020,14:30:49,3660
60,7,8,D1,K1,D1,2,R,D1,Y,3/5/2020,14:30:49,4090
60,7,9,F1,C1,F1,2,R,F1,Y,3/5/2020,14:30:49,5998
61,7,0,A1,I1,A1,2,R,A1,Y,3/5/2020,14:33:59,6278
61,7,1,G1,D1,G1,1,L,D1,N,3/5/2020,14:33:59,4326
61,7,2,K1,F1,K1,1,L,F1,N,3/5/2020,14:33:59,5503
61,7,3,E1,E1,A1,2,L,E1,Y,3/5/2020,14:33:59,3508
61,7,4,B1,B1,I1,2,L,B1,Y,3/5/2020,14:33:59,3523
61,7,5,F1,K1,F1,1,R,F1,Y,3/5/2020,14:33:59,3573
61,7,6,C1,C1,E1,2,L,C1,Y,3/5/2020,14:33:59,6531
61,7,7,D1,D1,F1,2,L,D1,Y,3/5/2020,14:33:59,4470
61,7,8,I1,B1,I1,1,R,I1,Y,3/5/2020,14:33:59,4673
61,7,9,H1,C1,H1,1,R,H1,Y,3/5/2020,14:33:59,4043
62,8,0,A1,A1,I1,2,L,A1,Y,3/5/2020,14:36:30,9127
62,8,1,C1,A1,C1,2,R,C1,Y,3/5/2020,14:36:30,3407
62,8,2,F1,C1,F1,1,R,F1,Y,3/5/2020,14:36:30,5920
62,8,3,E1,A1,E1,1,R,E1,Y,3/5/2020,14:36:30,3808
62,8,4,I1,E1,I1,2,R,I1,Y,3/5/2020,14:36:30,3140
62,8,5,D1,D1,E1,1,L,D1,Y,3/5/2020,14:36:30,3425
62,8,6,K1,B1,K1,2,R,K1,Y,3/5/2020,14:36:30,7958
62,8,7,G1,E1,G1,1,R,G1,Y,3/5/2020,14:36:30,4711
62,8,8,B1,C1,B1,2,R,B1,Y,3/5/2020,14:36:30,2790
62,8,9,H1,H1,D1,1,L,H1,Y,3/5/2020,14:36:30,4540
63,7,0,H1,D1,H1,2,R,H1,Y,3/5/2020,14:38:44,4419
63,7,1,B1,C1,B1,1,R,B1,Y,3/5/2020,14:38:44,4722
63,7,2,K1,K1,A1,2,L,K1,Y,3/5/2020,14:38:44,2190
63,7,3,G1,G1,C1,2,R,C1,N,3/5/2020,14:38:44,2340
63,7,4,F1,C1,F1,2,R,F1,Y,3/5/2020,14:38:44,4324
63,7,5,C1,H1,C1,1,L,H1,N,3/5/2020,14:38:44,3156
63,7,6,D1,K1,D1,1,R,D1,Y,3/5/2020,14:38:44,2247
63,7,7,I1,A1,I1,2,R,I1,Y,3/5/2020,14:38:44,3102
63,7,8,E1,E1,I1,1,L,E1,Y,3/5/2020,14:38:44,3089
63,7,9,A1,A1,K1,1,L,A1,Y,3/5/2020,14:38:44,2322
64,4,0,E1,B1,E1,2,R,E1,Y,3/6/2020,13:14:46,15705
64,4,1,K1,K1,D1,1,L,K1,Y,3/6/2020,13:14:46,3803
64,4,2,D1,H1,D1,2,R,D1,Y,3/6/2020,13:14:46,2885
64,4,3,B1,C1,B1,1,R,B1,Y,3/6/2020,13:14:46,2386
64,4,4,I1,I1,E1,1,L,I1,Y,3/6/2020,13:14:46,4550
64,4,5,F1,B1,F1,2,R,F1,Y,3/6/2020,13:14:46,2884
64,4,6,A1,A1,I1,1,L,A1,Y,3/6/2020,13:14:46,3106
64,4,7,C1,C1,H1,1,L,C1,Y,3/6/2020,13:14:46,6318
64,4,8,G1,D1,G1,2,L,D1,N,3/6/2020,13:14:46,2234
64,4,9,H1,D1,H1,2,R,H1,Y,3/6/2020,13:14:46,5670
65,5,0,A1,A1,I1,2,L,A1,Y,3/6/2020,15:03:07,21736
65,5,1,H1,H1,D1,1,L,H1,Y,3/6/2020,15:03:07,5311
65,5,2,G1,G1,D1,1,L,G1,Y,3/6/2020,15:03:07,4493
65,5,3,K1,K1,F1,1,L,K1,Y,3/6/2020,15:03:07,7415
65,5,5,D1,D1,K1,2,L,D1,Y,3/6/2020,15:03:07,4854
65,5,4,C1,C1,I1,2,L,C1,Y,3/6/2020,15:03:07,4087
65,5,6,I1,A1,I1,1,R,I1,Y,3/6/2020,15:03:07,6252
65,5,7,B1,I1,B1,2,R,B1,Y,3/6/2020,15:03:07,2778
65,5,8,F1,G1,F1,1,R,F1,Y,3/6/2020,15:03:07,3106
65,5,9,E1,E1,I1,2,L,E1,Y,3/6/2020,15:03:07,6941
67,8,0,E1,I1,E1,1,R,E1,Y,3/12/2020,13:36:56,4214
67,8,1,D1,D1,E1,1,L,D1,Y,3/12/2020,13:36:56,2842
67,8,2,I1,E1,I1,2,R,I1,Y,3/12/2020,13:36:56,3090
67,8,3,C1,I1,C1,1,R,C1,Y,3/12/2020,13:36:56,2040
67,8,4,B1,D1,B1,1,R,B1,Y,3/12/2020,13:36:56,3090
67,8,5,K1,K1,D1,2,R,D1,N,3/12/2020,13:36:56,3021
67,8,6,F1,F1,K1,2,L,F1,Y,3/12/2020,13:36:56,2191
67,8,7,H1,H1,E1,2,R,E1,N,3/12/2020,13:36:56,3174
67,8,8,G1,G1,K1,2,L,G1,Y,3/12/2020,13:36:56,1924
67,8,9,A1,D1,A1,1,R,A1,Y,3/12/2020,13:36:56,2976
68,8,0,B1,K1,B1,1,R,B1,Y,3/12/2020,13:38:52,2589
68,8,1,I1,B1,I1,1,R,I1,Y,3/12/2020,13:38:52,3685
68,8,2,F1,K1,F1,2,R,F1,Y,3/12/2020,13:38:52,2510
68,8,3,A1,A1,K1,1,R,K1,N,3/12/2020,13:38:52,2891
68,8,4,D1,D1,E1,2,L,D1,Y,3/12/2020,13:38:52,3121
68,8,5,G1,K1,G1,2,R,G1,Y,3/12/2020,13:38:52,3036
68,8,6,K1,K1,B1,1,L,K1,Y,3/12/2020,13:38:52,5143
68,8,7,H1,H1,C1,2,L,H1,Y,3/12/2020,13:38:52,5374
68,8,8,C1,C1,E1,1,L,C1,Y,3/12/2020,13:38:52,3202
68,8,9,E1,E1,I1,2,L,E1,Y,3/12/2020,13:38:52,2791
69,8,0,D1,D1,K1,2,L,D1,Y,3/12/2020,13:40:43,4369
69,8,1,G1,G1,C1,1,L,G1,Y,3/12/2020,13:40:43,3535
69,8,2,K1,D1,K1,1,R,K1,Y,3/12/2020,13:40:43,3324
69,8,3,F1,B1,F1,1,R,F1,Y,3/12/2020,13:40:43,5308
69,8,4,C1,I1,C1,2,R,C1,Y,3/12/2020,13:40:43,3294
69,8,5,B1,D1,B1,2,R,B1,Y,3/12/2020,13:40:43,2616
69,8,6,A1,D1,A1,2,R,A1,Y,3/12/2020,13:40:43,3206
69,8,7,E1,I1,E1,2,R,E1,Y,3/12/2020,13:40:43,4475
69,8,8,H1,H1,E1,1,L,H1,Y,3/12/2020,13:40:43,5355
69,8,9,I1,E1,I1,1,L,E1,N,3/12/2020,13:40:43,3844
70,7,0,B1,B1,I1,2,L,B1,Y,3/12/2020,13:42:33,4835
70,7,1,G1,G1,C1,1,L,G1,Y,3/12/2020,13:42:33,7570
70,7,2,H1,E1,H1,1,R,H1,Y,3/12/2020,13:42:33,5008
70,7,3,F1,C1,F1,1,R,F1,Y,3/12/2020,13:42:33,4306
70,7,4,D1,F1,D1,1,R,D1,Y,3/12/2020,13:42:33,4822
70,7,5,K1,K1,A1,2,L,K1,Y,3/12/2020,13:42:33,4188
70,7,6,E1,E1,H1,1,L,E1,Y,3/12/2020,13:42:33,3106
70,7,7,I1,I1,C1,2,L,I1,Y,3/12/2020,13:42:33,3574
70,7,8,A1,H1,A1,2,R,A1,Y,3/12/2020,13:42:33,2764
70,7,9,C1,C1,E1,2,L,C1,Y,3/12/2020,13:42:33,3202
71,8,0,B1,C1,B1,1,R,B1,Y,3/12/2020,13:44:53,3629
71,8,1,D1,K1,D1,1,R,D1,Y,3/12/2020,13:44:53,10021
71,8,2,C1,C1,E1,1,L,C1,Y,3/12/2020,13:44:53,3904
71,8,3,E1,A1,E1,1,L,A1,N,3/12/2020,13:44:53,3123
71,8,4,H1,D1,H1,2,R,H1,Y,3/12/2020,13:44:53,4841
71,8,5,F1,G1,F1,2,R,F1,Y,3/12/2020,13:44:53,4020
71,8,6,I1,I1,C1,2,L,I1,Y,3/12/2020,13:44:53,4606
71,8,7,K1,B1,K1,2,R,K1,Y,3/12/2020,13:44:53,2391
71,8,8,A1,A1,H1,1,L,A1,Y,3/12/2020,13:44:53,4856
71,8,9,G1,K1,G1,2,L,K1,N,3/12/2020,13:44:53,7774
72,7,0,B1,B1,D1,1,L,B1,Y,3/12/2020,13:47:13,3526
72,7,1,F1,C1,F1,2,R,F1,Y,3/12/2020,13:47:13,6393
72,7,2,D1,D1,H1,2,L,D1,Y,3/12/2020,13:47:13,2444
72,7,3,K1,K1,B1,1,L,K1,Y,3/12/2020,13:47:13,3684
72,7,4,A1,D1,A1,1,R,A1,Y,3/12/2020,13:47:13,4041
72,7,5,I1,E1,I1,1,R,I1,Y,3/12/2020,13:47:13,7340
72,7,6,G1,E1,G1,2,R,G1,Y,3/12/2020,13:47:13,4673
72,7,7,E1,H1,E1,2,R,E1,Y,3/12/2020,13:47:13,2390
72,7,8,H1,C1,H1,2,R,H1,Y,3/12/2020,13:47:13,3041
72,7,9,C1,E1,C1,1,R,C1,Y,3/12/2020,13:47:13,9949
73,7,0,K1,A1,K1,1,R,K1,Y,3/12/2020,13:49:47,4286
73,7,1,I1,I1,A1,1,L,I1,Y,3/12/2020,13:49:47,4820
73,7,2,E1,I1,E1,2,R,E1,Y,3/12/2020,13:49:47,3321
73,7,3,F1,G1,F1,1,R,F1,Y,3/12/2020,13:49:47,4224
73,7,4,D1,H1,D1,2,R,D1,Y,3/12/2020,13:49:47,3357
73,7,5,C1,H1,C1,2,L,H1,N,3/12/2020,13:49:47,4608
73,7,6,A1,D1,A1,2,R,A1,Y,3/12/2020,13:49:47,3572
73,7,7,H1,H1,C1,1,L,H1,Y,3/12/2020,13:49:47,5162
73,7,8,B1,C1,B1,2,R,B1,Y,3/12/2020,13:49:47,4420
73,7,9,G1,D1,G1,1,R,G1,Y,3/12/2020,13:49:47,3161
74,7,0,G1,G1,D1,1,L,G1,Y,3/12/2020,13:51:54,3664
74,7,1,F1,F1,K1,1,R,K1,N,3/12/2020,13:51:54,5522
74,7,2,A1,I1,A1,2,R,A1,Y,3/12/2020,13:51:54,3508
74,7,3,K1,K1,D1,2,L,K1,Y,3/12/2020,13:51:54,3792
74,7,4,H1,H1,A1,1,L,H1,Y,3/12/2020,13:51:54,5606
74,7,5,E1,E1,H1,1,L,E1,Y,3/12/2020,13:51:54,1992
74,7,6,B1,C1,B1,2,R,B1,Y,3/12/2020,13:51:54,5990
74,7,7,C1,I1,C1,2,R,C1,Y,3/12/2020,13:51:54,3844
74,7,8,D1,D1,K1,1,L,D1,Y,3/12/2020,13:51:54,2556
74,7,9,I1,A1,I1,2,R,I1,Y,3/12/2020,13:51:54,6425
75,8,0,K1,K1,F1,2,L,K1,Y,3/12/2020,13:53:54,3837
75,8,1,F1,F1,C1,2,L,F1,Y,3/12/2020,13:53:54,5074
75,8,2,I1,I1,C1,2,L,I1,Y,3/12/2020,13:53:54,9472
75,8,3,A1,A1,H1,1,L,A1,Y,3/12/2020,13:53:54,2923
75,8,4,D1,D1,H1,1,L,D1,Y,3/12/2020,13:53:54,4074
75,8,5,B1,I1,B1,1,R,B1,Y,3/12/2020,13:53:54,7855
75,8,6,H1,H1,D1,2,L,H1,Y,3/12/2020,13:53:54,5159
75,8,7,C1,C1,A1,1,L,C1,Y,3/12/2020,13:53:54,3225
75,8,8,E1,E1,H1,1,L,E1,Y,3/12/2020,13:53:54,2524
75,8,9,G1,K1,G1,2,R,G1,Y,3/12/2020,13:53:54,3223
76,8,0,C1,A1,C1,1,R,C1,Y,3/12/2020,13:56:42,5332
76,8,1,F1,B1,F1,2,R,F1,Y,3/12/2020,13:56:42,3677
76,8,2,B1,K1,B1,1,R,B1,Y,3/12/2020,13:56:42,10697
76,8,3,G1,D1,G1,2,R,G1,Y,3/12/2020,13:56:42,10766
76,8,4,D1,D1,H1,2,R,H1,N,3/12/2020,13:56:42,4004
76,8,5,K1,A1,K1,1,R,K1,Y,3/12/2020,13:56:42,4836
76,8,6,A1,H1,A1,1,R,A1,Y,3/12/2020,13:56:42,4270
76,8,7,E1,I1,E1,2,R,E1,Y,3/12/2020,13:56:42,2246
76,8,8,I1,I1,B1,1,L,I1,Y,3/12/2020,13:56:42,3325
76,8,9,H1,H1,D1,2,R,D1,N,3/12/2020,13:56:42,17406
77,8,0,F1,G1,F1,1,R,F1,Y,3/12/2020,13:59:02,6834
77,8,1,H1,H1,C1,1,L,H1,Y,3/12/2020,13:59:02,4000
77,8,2,D1,D1,F1,2,L,D1,Y,3/12/2020,13:59:02,3971
77,8,3,B1,B1,C1,2,R,C1,N,3/12/2020,13:59:02,5659
77,8,4,E1,B1,E1,2,R,E1,Y,3/12/2020,13:59:02,5090
77,8,5,C1,E1,C1,2,R,C1,Y,3/12/2020,13:59:02,5524
77,8,6,I1,E1,I1,1,R,I1,Y,3/12/2020,13:59:02,3809
77,8,7,A1,I1,A1,2,R,A1,Y,3/12/2020,13:59:02,4309
77,8,8,G1,E1,G1,1,R,G1,Y,3/12/2020,13:59:02,3957
77,8,9,K1,A1,K1,1,R,K1,Y,3/12/2020,13:59:02,3151
78,8,0,K1,K1,A1,2,L,K1,Y,3/12/2020,14:01:15,5129
78,8,1,C1,E1,C1,2,R,C1,Y,3/12/2020,14:01:15,3988
78,8,2,G1,D1,G1,1,R,G1,Y,3/12/2020,14:01:15,4486
78,8,3,E1,A1,E1,1,R,E1,Y,3/12/2020,14:01:15,3447
78,8,4,H1,A1,H1,1,R,H1,Y,3/12/2020,14:01:15,4815
78,8,5,D1,E1,D1,1,R,D1,Y,3/12/2020,14:01:15,2706
78,8,6,A1,A1,K1,2,L,A1,Y,3/12/2020,14:01:15,3425
78,8,7,F1,G1,F1,1,R,F1,Y,3/12/2020,14:01:15,8840
78,8,8,B1,B1,C1,2,L,B1,Y,3/12/2020,14:01:15,2691
78,8,9,I1,I1,B1,2,L,I1,Y,3/12/2020,14:01:15,3325
79,8,0,E1,A1,E1,1,R,E1,Y,3/12/2020,14:04:25,5716
79,8,1,I1,I1,E1,2,L,I1,Y,3/12/2020,14:04:25,1719
79,8,2,B1,C1,B1,1,R,B1,Y,3/12/2020,14:04:25,3105
79,8,3,K1,B1,K1,2,R,K1,Y,3/12/2020,14:04:25,2455
79,8,4,H1,H1,A1,2,L,H1,Y,3/12/2020,14:04:25,2157
79,8,5,F1,C1,F1,2,R,F1,Y,3/12/2020,14:04:25,1810
79,8,6,G1,G1,C1,2,R,C1,N,3/12/2020,14:04:25,2142
79,8,7,A1,K1,A1,1,R,A1,Y,3/12/2020,14:04:25,2226
79,8,8,D1,D1,H1,1,L,D1,Y,3/12/2020,14:04:25,3408
79,8,9,C1,H1,C1,1,R,C1,Y,3/12/2020,14:04:25,4073
80,7,0,E1,H1,E1,2,R,E1,Y,3/12/2020,14:10:27,5342
80,7,1,B1,B1,D1,1,L,B1,Y,3/12/2020,14:10:27,3601
80,7,2,K1,A1,K1,1,R,K1,Y,3/12/2020,14:10:27,6290
80,7,3,H1,H1,E1,2,L,H1,Y,3/12/2020,14:10:27,5074
80,7,4,C1,C1,H1,1,L,C1,Y,3/12/2020,14:10:27,5106
80,7,5,G1,C1,G1,2,L,C1,N,3/12/2020,14:10:27,6474
80,7,6,I1,I1,B1,1,L,I1,Y,3/12/2020,14:10:27,4541
80,7,7,D1,F1,D1,2,L,F1,N,3/12/2020,14:10:27,5806
80,7,8,F1,K1,F1,2,R,F1,Y,3/12/2020,14:10:27,2602
80,7,9,A1,I1,A1,1,R,A1,Y,3/12/2020,14:10:27,6064
