iterationName,wID,aID,utterance,rt,target_type,competitor_type,target,foil,trial_type,trial_index,time_elapsed
testing,A1YHDO0G8F8HZK,30ZX6P7VF9KQMC3S387Y29S3CCP2JK,,4421.994999982417,,,,,html-button-response,0,4424
testing,A1YHDO0G8F8HZK,30ZX6P7VF9KQMC3S387Y29S3CCP2JK,,1981.499999994412,,,,,html-button-response,1,7411
testing,A1YHDO0G8F8HZK,30ZX6P7VF9KQMC3S387Y29S3CCP2JK,plain,6664.784999797121,familiar,close,poloshirt.jpg,hawaiishirt.jpg,survey-text,2,14588
testing,A1YHDO0G8F8HZK,30ZX6P7VF9KQMC3S387Y29S3CCP2JK,goldfish,3234.4249999150634,familiar,close,goldfish.jpg,swordfish.jpg,survey-text,3,18334
testing,A1YHDO0G8F8HZK,30ZX6P7VF9KQMC3S387Y29S3CCP2JK,dining,2883.8150000665337,familiar,close,diningtable.jpg,picnictable.jpg,survey-text,4,21727
testing,A1YHDO0G8F8HZK,30ZX6P7VF9KQMC3S387Y29S3CCP2JK,shepherd,3154.7399999108166,familiar,close,germanshepherd.jpg,pug.jpg,survey-text,5,25390
testing,A1YHDO0G8F8HZK,30ZX6P7VF9KQMC3S387Y29S3CCP2JK,mnm,1937.6899998169392,familiar,close,mnms.jpg,gummybears.jpg,survey-text,6,27837
testing,A1YHDO0G8F8HZK,30ZX6P7VF9KQMC3S387Y29S3CCP2JK,brown,1822.9749999009073,familiar,close,grizzlybear.jpg,polarbear.jpg,survey-text,7,30169
testing,A1YHDO0G8F8HZK,30ZX6P7VF9KQMC3S387Y29S3CCP2JK,sparrow,2371.8250000383705,familiar,close,sparrow.jpg,eagle.jpg,survey-text,8,33048
testing,A1YHDO0G8F8HZK,30ZX6P7VF9KQMC3S387Y29S3CCP2JK,blue,3663.2650000974536,familiar,close,sedan.jpg,sportscar.jpg,survey-text,9,37219
testing,A1YHDO0G8F8HZK,30ZX6P7VF9KQMC3S387Y29S3CCP2JK,,5925.539999967441,,,,,html-button-response,10,43648
testing,A1YHDO0G8F8HZK,30ZX6P7VF9KQMC3S387Y29S3CCP2JK,priest,6335.590000031516,tangram,isolated,H1.jpg,I1.jpg,survey-text,11,50492
testing,A1YHDO0G8F8HZK,30ZX6P7VF9KQMC3S387Y29S3CCP2JK,running,1628.1549998093396,tangram,isolated,tangram-67.jpg,tangram-32.jpg,survey-text,12,52629
testing,A1YHDO0G8F8HZK,30ZX6P7VF9KQMC3S387Y29S3CCP2JK,dance,5063.85500007309,tangram,isolated,A2.jpg,tangram-99.jpg,survey-text,13,58202
testing,A1YHDO0G8F8HZK,30ZX6P7VF9KQMC3S387Y29S3CCP2JK,hop,3108.890000032261,tangram,isolated,tangram-90.jpg,tangram-81.jpg,survey-text,14,61820
testing,A1YHDO0G8F8HZK,30ZX6P7VF9KQMC3S387Y29S3CCP2JK,fall,1700.4650000017136,tangram,isolated,tangram-164.jpg,tangram-183.jpg,survey-text,15,64031
testing,A1YHDO0G8F8HZK,30ZX6P7VF9KQMC3S387Y29S3CCP2JK,sad,1330.6650000158697,tangram,isolated,B1.jpg,P1.jpg,survey-text,16,65872
testing,A1YHDO0G8F8HZK,30ZX6P7VF9KQMC3S387Y29S3CCP2JK,kick,1660.969999851659,tangram,isolated,tangram-48.jpg,tangram-187.jpg,survey-text,17,68042
testing,A1YHDO0G8F8HZK,30ZX6P7VF9KQMC3S387Y29S3CCP2JK,run,1451.4450000133365,tangram,isolated,tangram-55.jpg,N1.jpg,survey-text,18,70003
testing,A1YHDO0G8F8HZK,30ZX6P7VF9KQMC3S387Y29S3CCP2JK,,5482.795000076294,,,,,html-button-response,19,75990
testing,A1YHDO0G8F8HZK,30ZX6P7VF9KQMC3S387Y29S3CCP2JK,mnm,1888.3549999445677,familiar,far,mnms.jpg,pretzels.jpg,survey-text,20,78387
testing,A1YHDO0G8F8HZK,30ZX6P7VF9KQMC3S387Y29S3CCP2JK,bird,2494.8650000151247,familiar,far,sparrow.jpg,squirrel.jpg,survey-text,21,81391
testing,A1YHDO0G8F8HZK,30ZX6P7VF9KQMC3S387Y29S3CCP2JK,fish,3991.6349998675287,familiar,far,goldfish.jpg,iguana.jpg,survey-text,22,85892
testing,A1YHDO0G8F8HZK,30ZX6P7VF9KQMC3S387Y29S3CCP2JK,table,1801.6949999146163,familiar,far,diningtable.jpg,wardrobe.jpg,survey-text,23,88202
testing,A1YHDO0G8F8HZK,30ZX6P7VF9KQMC3S387Y29S3CCP2JK,dog,1495.6999998539686,familiar,far,germanshepherd.jpg,cow.jpg,survey-text,24,90207
testing,A1YHDO0G8F8HZK,30ZX6P7VF9KQMC3S387Y29S3CCP2JK,sedan,1636.4200001116842,familiar,far,sedan.jpg,firetruck.jpg,survey-text,25,92353
testing,A1YHDO0G8F8HZK,30ZX6P7VF9KQMC3S387Y29S3CCP2JK,tee,1313.4500000160187,familiar,far,poloshirt.jpg,dress.jpg,survey-text,26,94175
testing,A1YHDO0G8F8HZK,30ZX6P7VF9KQMC3S387Y29S3CCP2JK,bear,1517.5299998372793,familiar,far,grizzlybear.jpg,lion.jpg,survey-text,27,96200
testing,A1YHDO0G8F8HZK,30ZX6P7VF9KQMC3S387Y29S3CCP2JK,,3114.060000050813,,,,,html-button-response,28,99818
testing,A1YHDO0G8F8HZK,30ZX6P7VF9KQMC3S387Y29S3CCP2JK,shirt,1912.7950000111014,familiar,isolated,poloshirt.jpg,hawaiishirt.jpg,survey-text,29,102242
testing,A1YHDO0G8F8HZK,30ZX6P7VF9KQMC3S387Y29S3CCP2JK,bear,1592.37499977462,familiar,isolated,grizzlybear.jpg,polarbear.jpg,survey-text,30,104344
testing,A1YHDO0G8F8HZK,30ZX6P7VF9KQMC3S387Y29S3CCP2JK,bird,1302.1849999204278,familiar,isolated,sparrow.jpg,eagle.jpg,survey-text,31,106154
testing,A1YHDO0G8F8HZK,30ZX6P7VF9KQMC3S387Y29S3CCP2JK,table,1427.0399999804795,familiar,isolated,diningtable.jpg,picnictable.jpg,survey-text,32,108090
testing,A1YHDO0G8F8HZK,30ZX6P7VF9KQMC3S387Y29S3CCP2JK,dog,1331.9349999073893,familiar,isolated,germanshepherd.jpg,pug.jpg,survey-text,33,109931
testing,A1YHDO0G8F8HZK,30ZX6P7VF9KQMC3S387Y29S3CCP2JK,car,1560.4049998801202,familiar,isolated,sedan.jpg,sportscar.jpg,survey-text,34,112002
testing,A1YHDO0G8F8HZK,30ZX6P7VF9KQMC3S387Y29S3CCP2JK,candy,1572.9499999433756,familiar,isolated,mnms.jpg,gummybears.jpg,survey-text,35,114083
testing,A1YHDO0G8F8HZK,30ZX6P7VF9KQMC3S387Y29S3CCP2JK,fish,3421.749999979511,familiar,isolated,goldfish.jpg,swordfish.jpg,survey-text,36,118015
testing,A1YHDO0G8F8HZK,30ZX6P7VF9KQMC3S387Y29S3CCP2JK,,3652.9599998611957,,,,,html-button-response,37,122172
testing,A1YHDO0G8F8HZK,30ZX6P7VF9KQMC3S387Y29S3CCP2JK,ponytail,13048.639999935403,tangram,close,A2.jpg,tangram-99.jpg,survey-text,38,135729
testing,A1YHDO0G8F8HZK,30ZX6P7VF9KQMC3S387Y29S3CCP2JK,arms up,9154.89499992691,tangram,close,tangram-90.jpg,tangram-81.jpg,survey-text,39,145392
testing,A1YHDO0G8F8HZK,30ZX6P7VF9KQMC3S387Y29S3CCP2JK,running,2655.775000108406,tangram,close,tangram-67.jpg,tangram-32.jpg,survey-text,40,148557
testing,A1YHDO0G8F8HZK,30ZX6P7VF9KQMC3S387Y29S3CCP2JK,high kick,2963.729999959469,tangram,close,tangram-48.jpg,tangram-187.jpg,survey-text,41,152029
testing,A1YHDO0G8F8HZK,30ZX6P7VF9KQMC3S387Y29S3CCP2JK,sitting,2883.9650000445545,tangram,close,tangram-164.jpg,tangram-183.jpg,survey-text,42,155422
testing,A1YHDO0G8F8HZK,30ZX6P7VF9KQMC3S387Y29S3CCP2JK,sad,1339.6549997851253,tangram,close,B1.jpg,P1.jpg,survey-text,43,157272
testing,A1YHDO0G8F8HZK,30ZX6P7VF9KQMC3S387Y29S3CCP2JK,crouching,7863.645000150427,tangram,close,tangram-55.jpg,N1.jpg,survey-text,44,165644
testing,A1YHDO0G8F8HZK,30ZX6P7VF9KQMC3S387Y29S3CCP2JK,priest,3737.4950000084937,tangram,close,H1.jpg,I1.jpg,survey-text,45,169890
testing,A1YHDO0G8F8HZK,30ZX6P7VF9KQMC3S387Y29S3CCP2JK,,2404.6850001905113,,,,,html-button-response,46,172799
testing,A1YHDO0G8F8HZK,30ZX6P7VF9KQMC3S387Y29S3CCP2JK,running,1923.149999929592,tangram,far,tangram-67.jpg,G1.jpg,survey-text,47,175229
testing,A1YHDO0G8F8HZK,30ZX6P7VF9KQMC3S387Y29S3CCP2JK,sad,2191.7099999263883,tangram,far,B1.jpg,tangram-4.jpg,survey-text,48,177929
testing,A1YHDO0G8F8HZK,30ZX6P7VF9KQMC3S387Y29S3CCP2JK,dance,2572.4349999800324,tangram,far,A2.jpg,C1.jpg,survey-text,49,181012
testing,A1YHDO0G8F8HZK,30ZX6P7VF9KQMC3S387Y29S3CCP2JK,hop,1821.595000103116,tangram,far,tangram-90.jpg,tangram-120.jpg,survey-text,50,183343
testing,A1YHDO0G8F8HZK,30ZX6P7VF9KQMC3S387Y29S3CCP2JK,priest,3855.340000009164,tangram,far,H1.jpg,tangram-8.jpg,survey-text,51,187708
testing,A1YHDO0G8F8HZK,30ZX6P7VF9KQMC3S387Y29S3CCP2JK,run,1347.4749999586493,tangram,far,tangram-55.jpg,tangram-143.jpg,survey-text,52,189564
testing,A1YHDO0G8F8HZK,30ZX6P7VF9KQMC3S387Y29S3CCP2JK,kick,1716.054999968037,tangram,far,tangram-48.jpg,D1.jpg,survey-text,53,191790
testing,A1YHDO0G8F8HZK,30ZX6P7VF9KQMC3S387Y29S3CCP2JK,fall,1889.8100000806153,tangram,far,tangram-164.jpg,tangram-64.jpg,survey-text,54,194189
testing,,,,7378,,,,,external-html,0,7416
testing,,,,2708,,,,,html-button-response,1,10128
testing,,,,2399.000000000002,,,,,html-button-response,2,13530
testing,,,,5115,,,,,external-html,0,5169
testing,,,,7454,,,,,html-button-response,1,12628
testing,,,,20618,,,,,html-button-response,2,34250
testing,,,,5128,,,,,external-html,0,5166
testing,,,,746,,,,,html-button-response,1,5917
testing,,,,2058,,,,,html-button-response,2,8978
testing,,,asdf,1519,familiar,isolated,goldfish.jpg,swordfish.jpg,survey-text,3,11016
testing,,,,6159,,,,,external-html,0,6197
testing,,,,811,,,,,html-button-response,1,7012
testing,,,,1066,,,,,html-button-response,2,9082
testing,,,,5006,,,,,external-html,0,5040
testing,,,,781,,,,,html-button-response,1,5825
testing,,,,1252,,,,,html-button-response,2,8079
testing,,,,4794,,,,,external-html,0,4830
testing,,,,907.9999999999991,,,,,html-button-response,1,5743
testing,,,,6622,,,,,html-button-response,2,13368
testing,,,asdf,8896,tangram,close,tangram-48.jpg,tangram-187.jpg,survey-text,3,22798
testing,,,asdf,96732,tangram,close,tangram-67.jpg,tangram-32.jpg,survey-text,4,120043
testing,,,asdf,4217,tangram,close,tangram-164.jpg,tangram-183.jpg,survey-text,5,124770
testing,,,,5211,,,,,external-html,0,5245
testing,,,,1219,,,,,html-button-response,1,6469
pilot,,,,4561,,,,,external-html,0,4597
pilot,,,,1052,,,,,html-button-response,1,5653
pilot,,,,645,,,,,html-button-response,2,7300
pilot,,,asdf,1242,familiar,isolated,poloshirt.jpg,hawaiishirt.jpg,survey-text,3,9058
pilot,,,asdf,814,familiar,isolated,diningtable.jpg,picnictable.jpg,survey-text,4,10380
pilot,,,asdf,681.9999999999982,familiar,isolated,grizzlybear.jpg,polarbear.jpg,survey-text,5,11571
pilot,,,asdf,878,familiar,isolated,goldfish.jpg,swordfish.jpg,survey-text,6,12962
pilot,,,asdf,723,familiar,isolated,mnms.jpg,gummybears.jpg,survey-text,7,14192
pilot,,,asdf,698.0000000000036,familiar,isolated,germanshepherd.jpg,pug.jpg,survey-text,8,15399
pilot,,,asdf,604,familiar,isolated,sparrow.jpg,eagle.jpg,survey-text,9,16513
pilot,,,asdf,557,familiar,isolated,sedan.jpg,sportscar.jpg,survey-text,10,17577
pilot,,,,1160,,,,,html-button-response,11,19238
pilot,,,asdf,1298.9999999999964,tangram,close,H1.jpg,I1.jpg,survey-text,12,21045
pilot,,,asdf,677,tangram,close,tangram-67.jpg,tangram-32.jpg,survey-text,13,22228
pilot,,,asdf,877,tangram,close,tangram-164.jpg,tangram-183.jpg,survey-text,14,23613
pilot,,,asdf,749.0000000000036,tangram,close,tangram-90.jpg,tangram-81.jpg,survey-text,15,24867
pilot,,,asdf,620,tangram,close,tangram-48.jpg,tangram-187.jpg,survey-text,16,25994
pilot,,,asdf,807,tangram,close,B1.jpg,P1.jpg,survey-text,17,27308
pilot,,,asdf,826,tangram,close,tangram-55.jpg,N1.jpg,survey-text,18,28642
pilot,,,asdf,829,tangram,close,A2.jpg,tangram-99.jpg,survey-text,19,29977
pilot,,,,1217,,,,,html-button-response,20,31696
pilot,,,,4386,,,,,external-html,0,4429
pilot2,AZCGF2D7QIO10,3BGYGHDBBY9QGG5KWN622HSG50M22T,,7332.155000010971,,,,,external-html,0,7410
pilot2,AZCGF2D7QIO10,3BGYGHDBBY9QGG5KWN622HSG50M22T,,3603.254999994533,,,,,html-button-response,1,11020
pilot2,AZCGF2D7QIO10,3BGYGHDBBY9QGG5KWN622HSG50M22T,,2677.769999980228,,,,,html-button-response,2,14701
pilot2,AZCGF2D7QIO10,3BGYGHDBBY9QGG5KWN622HSG50M22T,running boy,11450.565000006463,tangram,isolated,tangram-90.jpg,tangram-81.jpg,survey-text,3,26667
pilot2,A3DCMLNFISSIAW,304SM51WA4TD9SME9VEJUS8OX0YBS7,,8767.44999998482,,,,,external-html,0,9071
pilot2,AZCGF2D7QIO10,3BGYGHDBBY9QGG5KWN622HSG50M22T,sad man,7073.83999999729,tangram,isolated,B1.jpg,P1.jpg,survey-text,4,34254
pilot2,AZCGF2D7QIO10,3BGYGHDBBY9QGG5KWN622HSG50M22T,playing kid,7545.15999997966,tangram,isolated,A2.jpg,tangram-99.jpg,survey-text,5,42305
pilot2,AZCGF2D7QIO10,3BGYGHDBBY9QGG5KWN622HSG50M22T,kick,3778.775000013411,tangram,isolated,tangram-48.jpg,tangram-187.jpg,survey-text,6,46601
pilot2,AZCGF2D7QIO10,3BGYGHDBBY9QGG5KWN622HSG50M22T,run,4609.009999985574,tangram,isolated,tangram-55.jpg,N1.jpg,survey-text,7,51726
pilot2,A3DCMLNFISSIAW,304SM51WA4TD9SME9VEJUS8OX0YBS7,,25107.505000021774,,,,,html-button-response,1,34190
pilot2,AZCGF2D7QIO10,3BGYGHDBBY9QGG5KWN622HSG50M22T,falling,3709.159999998519,tangram,isolated,tangram-164.jpg,tangram-183.jpg,survey-text,8,55950
pilot2,A3DCMLNFISSIAW,304SM51WA4TD9SME9VEJUS8OX0YBS7,,1917.090000002645,,,,,html-button-response,2,37111
pilot2,AZCGF2D7QIO10,3BGYGHDBBY9QGG5KWN622HSG50M22T,pray,7170.910000015283,tangram,isolated,H1.jpg,I1.jpg,survey-text,9,63639
pilot2,ACXP8KHFX06KR,3F1567XTNXUI8JS4J7BI8MYXRCA9Q6,,4840.945000061765,,,,,external-html,0,4935
pilot2,ACXP8KHFX06KR,3F1567XTNXUI8JS4J7BI8MYXRCA9Q6,,1746.5649999212474,,,,,html-button-response,1,6684
pilot2,ACXP8KHFX06KR,3F1567XTNXUI8JS4J7BI8MYXRCA9Q6,,1474.9949998222291,,,,,html-button-response,2,9162
pilot2,AZCGF2D7QIO10,3BGYGHDBBY9QGG5KWN622HSG50M22T,run,5214.869999996154,tangram,isolated,tangram-67.jpg,tangram-32.jpg,survey-text,10,69372
pilot2,ACXP8KHFX06KR,3F1567XTNXUI8JS4J7BI8MYXRCA9Q6,bear,4072.0899999141693,familiar,isolated,grizzlybear.jpg,polarbear.jpg,survey-text,3,13741
pilot2,AZCGF2D7QIO10,3BGYGHDBBY9QGG5KWN622HSG50M22T,,4562.810000003083,,,,,html-button-response,11,74447
pilot2,A3DCMLNFISSIAW,304SM51WA4TD9SME9VEJUS8OX0YBS7,walking,18300.525000027847,tangram,far,tangram-67.jpg,G1.jpg,survey-text,3,55921
pilot2,ACXP8KHFX06KR,3F1567XTNXUI8JS4J7BI8MYXRCA9Q6,dog,2765.5850001610816,familiar,isolated,germanshepherd.jpg,pug.jpg,survey-text,4,17012
pilot2,ACXP8KHFX06KR,3F1567XTNXUI8JS4J7BI8MYXRCA9Q6,table,2067.1600000932813,familiar,isolated,diningtable.jpg,picnictable.jpg,survey-text,5,19585
pilot2,AZCGF2D7QIO10,3BGYGHDBBY9QGG5KWN622HSG50M22T,bird,5715.305000019725,familiar,far,sparrow.jpg,squirrel.jpg,survey-text,12,80677
pilot2,ACXP8KHFX06KR,3F1567XTNXUI8JS4J7BI8MYXRCA9Q6,fish,1876.064999960363,familiar,isolated,goldfish.jpg,swordfish.jpg,survey-text,6,21966
pilot2,A3DCMLNFISSIAW,304SM51WA4TD9SME9VEJUS8OX0YBS7,standing,5759.825000015553,tangram,far,H1.jpg,tangram-8.jpg,survey-text,4,62188
pilot2,ACXP8KHFX06KR,3F1567XTNXUI8JS4J7BI8MYXRCA9Q6,bird,1449.7499999124557,familiar,isolated,sparrow.jpg,eagle.jpg,survey-text,7,23919
pilot2,AZCGF2D7QIO10,3BGYGHDBBY9QGG5KWN622HSG50M22T,shirt,3684.529999998631,familiar,far,poloshirt.jpg,dress.jpg,survey-text,13,84878
pilot2,ACXP8KHFX06KR,3F1567XTNXUI8JS4J7BI8MYXRCA9Q6,candy,1700.219999998808,familiar,isolated,mnms.jpg,gummybears.jpg,survey-text,8,26125
pilot2,A2HNFX7M18N1JI,3OONKJ5DKD8YB0UL2EXAANYN0BVBOA,,38470.7699999999,,,,,external-html,0,39211
pilot2,ACXP8KHFX06KR,3F1567XTNXUI8JS4J7BI8MYXRCA9Q6,car,1142.5650001037866,familiar,isolated,sedan.jpg,sportscar.jpg,survey-text,9,27776
pilot2,A3DCMLNFISSIAW,304SM51WA4TD9SME9VEJUS8OX0YBS7,reverse,4183.829999994487,tangram,far,B1.jpg,tangram-4.jpg,survey-text,5,66897
pilot2,ACXP8KHFX06KR,3F1567XTNXUI8JS4J7BI8MYXRCA9Q6,shirt,1383.075000019744,familiar,isolated,poloshirt.jpg,hawaiishirt.jpg,survey-text,10,29662
pilot2,AZCGF2D7QIO10,3BGYGHDBBY9QGG5KWN622HSG50M22T,fish,4240.67999998806,familiar,far,goldfish.jpg,iguana.jpg,survey-text,14,89643
pilot2,ACXP8KHFX06KR,3F1567XTNXUI8JS4J7BI8MYXRCA9Q6,,4281.309999991208,,,,,html-button-response,11,34446
pilot2,AZCGF2D7QIO10,3BGYGHDBBY9QGG5KWN622HSG50M22T,dog,3928.33499997505,familiar,far,germanshepherd.jpg,cow.jpg,survey-text,15,94084
pilot2,A2HNFX7M18N1JI,3OONKJ5DKD8YB0UL2EXAANYN0BVBOA,,7299.124999999534,,,,,html-button-response,1,46516
pilot2,A3DCMLNFISSIAW,304SM51WA4TD9SME9VEJUS8OX0YBS7,running,8112.294999998994,tangram,far,A2.jpg,C1.jpg,survey-text,6,75525
pilot2,ACXP8KHFX06KR,3F1567XTNXUI8JS4J7BI8MYXRCA9Q6,yes,2050.7549999747425,tangram,far,H1.jpg,tangram-8.jpg,survey-text,12,37001
pilot2,ACXP8KHFX06KR,3F1567XTNXUI8JS4J7BI8MYXRCA9Q6,no,513.6700000148267,tangram,far,tangram-90.jpg,tangram-120.jpg,survey-text,13,38018
pilot2,AZCGF2D7QIO10,3BGYGHDBBY9QGG5KWN622HSG50M22T,car,2664.8500000010245,familiar,far,sedan.jpg,firetruck.jpg,survey-text,16,97253
pilot2,ACXP8KHFX06KR,3F1567XTNXUI8JS4J7BI8MYXRCA9Q6,run,1210.7749998103827,tangram,far,A2.jpg,C1.jpg,survey-text,14,39733
pilot2,A3DCMLNFISSIAW,304SM51WA4TD9SME9VEJUS8OX0YBS7,running,3426.7000000108965,tangram,far,tangram-90.jpg,tangram-120.jpg,survey-text,7,79461
pilot2,AZCGF2D7QIO10,3BGYGHDBBY9QGG5KWN622HSG50M22T,bear,2938.8249999901745,familiar,far,grizzlybear.jpg,lion.jpg,survey-text,17,100711
pilot2,ACXP8KHFX06KR,3F1567XTNXUI8JS4J7BI8MYXRCA9Q6,run,1992.9299999494106,tangram,far,tangram-67.jpg,G1.jpg,survey-text,15,42231
pilot2,A3DCMLNFISSIAW,304SM51WA4TD9SME9VEJUS8OX0YBS7,running,2744.784999988042,tangram,far,tangram-55.jpg,tangram-143.jpg,survey-text,8,82715
pilot2,ACXP8KHFX06KR,3F1567XTNXUI8JS4J7BI8MYXRCA9Q6,kick,1750.9349999018013,tangram,far,tangram-48.jpg,D1.jpg,survey-text,16,44486
pilot2,AZCGF2D7QIO10,3BGYGHDBBY9QGG5KWN622HSG50M22T,candy,3150.9900000237394,familiar,far,mnms.jpg,pretzels.jpg,survey-text,18,104372
pilot2,ACXP8KHFX06KR,3F1567XTNXUI8JS4J7BI8MYXRCA9Q6,run,915.3549999464303,tangram,far,tangram-55.jpg,tangram-143.jpg,survey-text,17,45904
pilot2,ACXP8KHFX06KR,3F1567XTNXUI8JS4J7BI8MYXRCA9Q6,run,383.6000000592321,tangram,far,B1.jpg,tangram-4.jpg,survey-text,18,46791
pilot2,ACXP8KHFX06KR,3F1567XTNXUI8JS4J7BI8MYXRCA9Q6,run,474.75999989546835,tangram,far,tangram-164.jpg,tangram-64.jpg,survey-text,19,47770
pilot2,A2HNFX7M18N1JI,3OONKJ5DKD8YB0UL2EXAANYN0BVBOA,,11707.174999999552,,,,,html-button-response,2,59235
pilot2,AZCGF2D7QIO10,3BGYGHDBBY9QGG5KWN622HSG50M22T,table,3292.6250000018626,familiar,far,diningtable.jpg,wardrobe.jpg,survey-text,19,108169
pilot2,ACXP8KHFX06KR,3F1567XTNXUI8JS4J7BI8MYXRCA9Q6,,1492.6950000226498,,,,,html-button-response,20,49765
pilot2,AZCGF2D7QIO10,3BGYGHDBBY9QGG5KWN622HSG50M22T,,1124.5200000121258,,,,,html-button-response,20,109807
pilot2,ACXP8KHFX06KR,3F1567XTNXUI8JS4J7BI8MYXRCA9Q6,no,906.0049999970943,tangram,close,tangram-67.jpg,tangram-32.jpg,survey-text,21,51177
pilot2,ACXP8KHFX06KR,3F1567XTNXUI8JS4J7BI8MYXRCA9Q6,no,719.2500000819564,tangram,close,A2.jpg,tangram-99.jpg,survey-text,22,52399
pilot2,ACXP8KHFX06KR,3F1567XTNXUI8JS4J7BI8MYXRCA9Q6,no,382.92500004172325,tangram,close,tangram-164.jpg,tangram-183.jpg,survey-text,23,53286
pilot2,ACXP8KHFX06KR,3F1567XTNXUI8JS4J7BI8MYXRCA9Q6,no,311.0249999444932,tangram,close,tangram-90.jpg,tangram-81.jpg,survey-text,24,54100
pilot2,ACXP8KHFX06KR,3F1567XTNXUI8JS4J7BI8MYXRCA9Q6,no,352.8700000606477,tangram,close,tangram-48.jpg,tangram-187.jpg,survey-text,25,54957
pilot2,ACXP8KHFX06KR,3F1567XTNXUI8JS4J7BI8MYXRCA9Q6,no,434.8649999592453,tangram,close,H1.jpg,I1.jpg,survey-text,26,55897
pilot2,ACXP8KHFX06KR,3F1567XTNXUI8JS4J7BI8MYXRCA9Q6,no,502.74000014178455,tangram,close,tangram-55.jpg,N1.jpg,survey-text,27,56905
pilot2,ACXP8KHFX06KR,3F1567XTNXUI8JS4J7BI8MYXRCA9Q6,no,371.2999999988824,tangram,close,B1.jpg,P1.jpg,survey-text,28,57782
pilot2,ACXP8KHFX06KR,3F1567XTNXUI8JS4J7BI8MYXRCA9Q6,,8180.72500010021,,,,,html-button-response,29,66465
pilot2,ACXP8KHFX06KR,3F1567XTNXUI8JS4J7BI8MYXRCA9Q6,no,739.5949999336153,tangram,isolated,H1.jpg,I1.jpg,survey-text,30,67710
pilot2,ACXP8KHFX06KR,3F1567XTNXUI8JS4J7BI8MYXRCA9Q6,no,356.7449999973178,tangram,isolated,tangram-55.jpg,N1.jpg,survey-text,31,68571
pilot2,ACXP8KHFX06KR,3F1567XTNXUI8JS4J7BI8MYXRCA9Q6,no,344.50999996624887,tangram,isolated,A2.jpg,tangram-99.jpg,survey-text,32,69420
pilot2,ACXP8KHFX06KR,3F1567XTNXUI8JS4J7BI8MYXRCA9Q6,no,434.3000000808388,tangram,isolated,tangram-48.jpg,tangram-187.jpg,survey-text,33,70358
pilot2,ACXP8KHFX06KR,3F1567XTNXUI8JS4J7BI8MYXRCA9Q6,no,336.7550000548363,tangram,isolated,B1.jpg,P1.jpg,survey-text,34,71199
pilot2,ACXP8KHFX06KR,3F1567XTNXUI8JS4J7BI8MYXRCA9Q6,no,448.5200000926852,tangram,isolated,tangram-67.jpg,tangram-32.jpg,survey-text,35,72153
pilot2,ACXP8KHFX06KR,3F1567XTNXUI8JS4J7BI8MYXRCA9Q6,no,356.7950001452118,tangram,isolated,tangram-90.jpg,tangram-81.jpg,survey-text,36,73015
pilot2,ACXP8KHFX06KR,3F1567XTNXUI8JS4J7BI8MYXRCA9Q6,no,264.2850000411272,tangram,isolated,tangram-164.jpg,tangram-183.jpg,survey-text,37,73782
pilot2,A2HNFX7M18N1JI,3OONKJ5DKD8YB0UL2EXAANYN0BVBOA,Strength ,44422.190000000235,familiar,far,grizzlybear.jpg,lion.jpg,survey-text,3,104172
pilot2,A2HNFX7M18N1JI,3OONKJ5DKD8YB0UL2EXAANYN0BVBOA,legs,19586.98000000004,familiar,far,diningtable.jpg,wardrobe.jpg,survey-text,4,124275
pilot2,A2HNFX7M18N1JI,3OONKJ5DKD8YB0UL2EXAANYN0BVBOA,simple,17222.91500000027,familiar,far,poloshirt.jpg,dress.jpg,survey-text,5,142011
pilot2,A2HNFX7M18N1JI,3OONKJ5DKD8YB0UL2EXAANYN0BVBOA,fly,22459.46999999977,familiar,far,sparrow.jpg,squirrel.jpg,survey-text,6,164979
pilot2,ACXP8KHFX06KR,3F1567XTNXUI8JS4J7BI8MYXRCA9Q6,,93461.75999986008,,,,,html-button-response,38,167747
pilot2,ACXP8KHFX06KR,3F1567XTNXUI8JS4J7BI8MYXRCA9Q6,dog,1211.7149999830872,familiar,far,germanshepherd.jpg,cow.jpg,survey-text,39,169463
pilot2,ACXP8KHFX06KR,3F1567XTNXUI8JS4J7BI8MYXRCA9Q6,fish,1191.6500001680106,familiar,far,goldfish.jpg,iguana.jpg,survey-text,40,171161
pilot2,ACXP8KHFX06KR,3F1567XTNXUI8JS4J7BI8MYXRCA9Q6,candy,1466.7750000953674,familiar,far,mnms.jpg,pretzels.jpg,survey-text,41,173137
pilot2,ACXP8KHFX06KR,3F1567XTNXUI8JS4J7BI8MYXRCA9Q6,shirt,1641.8500000145286,familiar,far,poloshirt.jpg,dress.jpg,survey-text,42,175286
pilot2,ACXP8KHFX06KR,3F1567XTNXUI8JS4J7BI8MYXRCA9Q6,car,973.8799999468029,familiar,far,sedan.jpg,firetruck.jpg,survey-text,43,176766
pilot2,ACXP8KHFX06KR,3F1567XTNXUI8JS4J7BI8MYXRCA9Q6,bird,1202.0350000821054,familiar,far,sparrow.jpg,squirrel.jpg,survey-text,44,178474
pilot2,ACXP8KHFX06KR,3F1567XTNXUI8JS4J7BI8MYXRCA9Q6,table,2091.899999883026,familiar,far,diningtable.jpg,wardrobe.jpg,survey-text,45,181073
pilot2,ACXP8KHFX06KR,3F1567XTNXUI8JS4J7BI8MYXRCA9Q6,bear,1334.6599999349564,familiar,far,grizzlybear.jpg,lion.jpg,survey-text,46,182913
pilot2,ACXP8KHFX06KR,3F1567XTNXUI8JS4J7BI8MYXRCA9Q6,,1126.939999870956,,,,,html-button-response,47,184543
pilot2,ACXP8KHFX06KR,3F1567XTNXUI8JS4J7BI8MYXRCA9Q6,dog,1547.2949999384582,familiar,close,germanshepherd.jpg,pug.jpg,survey-text,48,186597
pilot2,ACXP8KHFX06KR,3F1567XTNXUI8JS4J7BI8MYXRCA9Q6,fish,2448.6549999564886,familiar,close,goldfish.jpg,swordfish.jpg,survey-text,49,189551
pilot2,ACXP8KHFX06KR,3F1567XTNXUI8JS4J7BI8MYXRCA9Q6,table,2717.8150000981987,familiar,close,diningtable.jpg,picnictable.jpg,survey-text,50,192771
pilot2,ACXP8KHFX06KR,3F1567XTNXUI8JS4J7BI8MYXRCA9Q6,shirt,1552.1799998823553,familiar,close,poloshirt.jpg,hawaiishirt.jpg,survey-text,51,194828
pilot2,ACXP8KHFX06KR,3F1567XTNXUI8JS4J7BI8MYXRCA9Q6,bird,1382.1799999568611,familiar,close,sparrow.jpg,eagle.jpg,survey-text,52,196713
pilot2,ACXP8KHFX06KR,3F1567XTNXUI8JS4J7BI8MYXRCA9Q6,candy,1512.540000025183,familiar,close,mnms.jpg,gummybears.jpg,survey-text,53,198729
pilot2,ACXP8KHFX06KR,3F1567XTNXUI8JS4J7BI8MYXRCA9Q6,car,1167.5299999769777,familiar,close,sedan.jpg,sportscar.jpg,survey-text,54,200400
pilot2,ACXP8KHFX06KR,3F1567XTNXUI8JS4J7BI8MYXRCA9Q6,bear,1052.9950000345707,familiar,close,grizzlybear.jpg,polarbear.jpg,survey-text,55,201957
pilot2,A2HNFX7M18N1JI,3OONKJ5DKD8YB0UL2EXAANYN0BVBOA,stones,57232.269999999524,familiar,far,mnms.jpg,pretzels.jpg,survey-text,7,222723
pilot2,A2HNFX7M18N1JI,3OONKJ5DKD8YB0UL2EXAANYN0BVBOA,speed,77674.74499999936,familiar,far,germanshepherd.jpg,cow.jpg,survey-text,8,300907
pilot2,A2HNFX7M18N1JI,3OONKJ5DKD8YB0UL2EXAANYN0BVBOA,classic,12428.595000000321,familiar,far,sedan.jpg,firetruck.jpg,survey-text,9,313851
pilot2,A2HNFX7M18N1JI,3OONKJ5DKD8YB0UL2EXAANYN0BVBOA,aquatic,9855.40500000026,familiar,far,goldfish.jpg,iguana.jpg,survey-text,10,324219
pilot2,A2HNFX7M18N1JI,3OONKJ5DKD8YB0UL2EXAANYN0BVBOA,,11526.574999999895,,,,,html-button-response,11,336250
pilot2,A2HNFX7M18N1JI,3OONKJ5DKD8YB0UL2EXAANYN0BVBOA,man,10522.544999999809,tangram,far,B1.jpg,tangram-4.jpg,survey-text,12,347282
pilot2,A2HNFX7M18N1JI,3OONKJ5DKD8YB0UL2EXAANYN0BVBOA,running,8138.069999999949,tangram,far,A2.jpg,C1.jpg,survey-text,13,355939
pilot2,A2HNFX7M18N1JI,3OONKJ5DKD8YB0UL2EXAANYN0BVBOA,speed,12305.260000000126,tangram,far,tangram-55.jpg,tangram-143.jpg,survey-text,14,368755
pilot2,A2HNFX7M18N1JI,3OONKJ5DKD8YB0UL2EXAANYN0BVBOA,running,6646.209999999846,tangram,far,tangram-67.jpg,G1.jpg,survey-text,15,375914
pilot2,A2HNFX7M18N1JI,3OONKJ5DKD8YB0UL2EXAANYN0BVBOA,reading,12316.890000000014,tangram,far,H1.jpg,tangram-8.jpg,survey-text,16,388739
pilot2,A2HNFX7M18N1JI,3OONKJ5DKD8YB0UL2EXAANYN0BVBOA,falls,8765.265000000014,tangram,far,tangram-164.jpg,tangram-64.jpg,survey-text,17,398011
pilot2,A2HNFX7M18N1JI,3OONKJ5DKD8YB0UL2EXAANYN0BVBOA,jumping,8054.48000000068,tangram,far,tangram-48.jpg,D1.jpg,survey-text,18,406578
pilot2,A2HNFX7M18N1JI,3OONKJ5DKD8YB0UL2EXAANYN0BVBOA,running,6723.25,tangram,far,tangram-90.jpg,tangram-120.jpg,survey-text,19,413810
pilot2,A2HNFX7M18N1JI,3OONKJ5DKD8YB0UL2EXAANYN0BVBOA,,1640.37999999983,,,,,html-button-response,20,415955
pilot2,A2HNFX7M18N1JI,3OONKJ5DKD8YB0UL2EXAANYN0BVBOA,stones,5063.905000000028,familiar,close,mnms.jpg,gummybears.jpg,survey-text,21,421530
pilot2,A2HNFX7M18N1JI,3OONKJ5DKD8YB0UL2EXAANYN0BVBOA,small,10174.250000000058,familiar,close,sparrow.jpg,eagle.jpg,survey-text,22,432218
pilot2,A2HNFX7M18N1JI,3OONKJ5DKD8YB0UL2EXAANYN0BVBOA,mild,7408.935000000347,familiar,close,goldfish.jpg,swordfish.jpg,survey-text,23,440138
pilot2,A2HNFX7M18N1JI,3OONKJ5DKD8YB0UL2EXAANYN0BVBOA,Strength ,7598.49000000034,familiar,close,germanshepherd.jpg,pug.jpg,survey-text,24,448250
pilot2,A2HNFX7M18N1JI,3OONKJ5DKD8YB0UL2EXAANYN0BVBOA,looks warm,36104.610000000335,familiar,close,sedan.jpg,sportscar.jpg,survey-text,25,484867
pilot2,A2HNFX7M18N1JI,3OONKJ5DKD8YB0UL2EXAANYN0BVBOA,widerness,12140.984999999986,familiar,close,diningtable.jpg,picnictable.jpg,survey-text,26,497514
pilot2,A2HNFX7M18N1JI,3OONKJ5DKD8YB0UL2EXAANYN0BVBOA,simple,5549.090000000433,familiar,close,poloshirt.jpg,hawaiishirt.jpg,survey-text,27,503571
pilot2,A2HNFX7M18N1JI,3OONKJ5DKD8YB0UL2EXAANYN0BVBOA,endurance ,13164.829999999609,familiar,close,grizzlybear.jpg,polarbear.jpg,survey-text,28,517243
pilot2,A2HNFX7M18N1JI,3OONKJ5DKD8YB0UL2EXAANYN0BVBOA,,3760.3749999998836,,,,,html-button-response,29,521507
pilot2,A2HNFX7M18N1JI,3OONKJ5DKD8YB0UL2EXAANYN0BVBOA,Trained Dog,18334.95000000042,familiar,isolated,germanshepherd.jpg,pug.jpg,survey-text,30,540346
pilot2,A2HNFX7M18N1JI,3OONKJ5DKD8YB0UL2EXAANYN0BVBOA,flying,17493.155000000028,familiar,isolated,sparrow.jpg,eagle.jpg,survey-text,31,558346
pilot2,A2HNFX7M18N1JI,3OONKJ5DKD8YB0UL2EXAANYN0BVBOA,stones,4780.8150000000605,familiar,isolated,mnms.jpg,gummybears.jpg,survey-text,32,563635
pilot2,A2HNFX7M18N1JI,3OONKJ5DKD8YB0UL2EXAANYN0BVBOA,Strength ,4414.939999999595,familiar,isolated,grizzlybear.jpg,polarbear.jpg,survey-text,33,568556
pilot2,A2HNFX7M18N1JI,3OONKJ5DKD8YB0UL2EXAANYN0BVBOA,simple,3731.2750000001397,familiar,isolated,poloshirt.jpg,hawaiishirt.jpg,survey-text,34,572794
pilot2,A2HNFX7M18N1JI,3OONKJ5DKD8YB0UL2EXAANYN0BVBOA,classic,5988.945000000065,familiar,isolated,sedan.jpg,sportscar.jpg,survey-text,35,579290
pilot2,A2HNFX7M18N1JI,3OONKJ5DKD8YB0UL2EXAANYN0BVBOA,simple,6120.060000000172,familiar,isolated,diningtable.jpg,picnictable.jpg,survey-text,36,585922
pilot2,A2HNFX7M18N1JI,3OONKJ5DKD8YB0UL2EXAANYN0BVBOA,aquatic,5559.300000000745,familiar,isolated,goldfish.jpg,swordfish.jpg,survey-text,37,591986
pilot2,A2HNFX7M18N1JI,3OONKJ5DKD8YB0UL2EXAANYN0BVBOA,,4850.480000001029,,,,,html-button-response,38,597346
pilot2,A2HNFX7M18N1JI,3OONKJ5DKD8YB0UL2EXAANYN0BVBOA,moving,22836.83500000008,tangram,close,A2.jpg,tangram-99.jpg,survey-text,39,620691
pilot2,A2HNFX7M18N1JI,3OONKJ5DKD8YB0UL2EXAANYN0BVBOA,shapes,14240.234999999288,tangram,close,tangram-55.jpg,N1.jpg,survey-text,40,635443
pilot2,A2HNFX7M18N1JI,3OONKJ5DKD8YB0UL2EXAANYN0BVBOA,size,6308.48499999952,tangram,close,tangram-48.jpg,tangram-187.jpg,survey-text,41,642259
pilot2,A2HNFX7M18N1JI,3OONKJ5DKD8YB0UL2EXAANYN0BVBOA,size,7200.715000000899,tangram,close,tangram-67.jpg,tangram-32.jpg,survey-text,42,649971
pilot2,A2HNFX7M18N1JI,3OONKJ5DKD8YB0UL2EXAANYN0BVBOA,style,6526.5849999996135,tangram,close,tangram-90.jpg,tangram-81.jpg,survey-text,43,657003
pilot2,A2HNFX7M18N1JI,3OONKJ5DKD8YB0UL2EXAANYN0BVBOA,Strength ,10628.854999998934,tangram,close,tangram-164.jpg,tangram-183.jpg,survey-text,44,668138
pilot2,A2HNFX7M18N1JI,3OONKJ5DKD8YB0UL2EXAANYN0BVBOA,reading,5980.43499999959,tangram,close,H1.jpg,I1.jpg,survey-text,45,674627
pilot2,A2HNFX7M18N1JI,3OONKJ5DKD8YB0UL2EXAANYN0BVBOA,motion,9687.10499999905,tangram,close,B1.jpg,P1.jpg,survey-text,46,684826
pilot2,A2HNFX7M18N1JI,3OONKJ5DKD8YB0UL2EXAANYN0BVBOA,,2854.5249999987427,,,,,html-button-response,47,688186
pilot2,A1KGCOR8OXYR72,3WAKVUDHUX56MTBSLJX34R4GZ7RU7J,,8151.3399998657405,,,,,external-html,0,8245
pilot2,A2HNFX7M18N1JI,3OONKJ5DKD8YB0UL2EXAANYN0BVBOA,motion,13468.6949999996,tangram,isolated,A2.jpg,tangram-99.jpg,survey-text,48,702162
pilot2,A1KGCOR8OXYR72,3WAKVUDHUX56MTBSLJX34R4GZ7RU7J,,6523.740000091493,,,,,html-button-response,1,14772
pilot2,A2HNFX7M18N1JI,3OONKJ5DKD8YB0UL2EXAANYN0BVBOA,moving,8836.504999999306,tangram,isolated,B1.jpg,P1.jpg,survey-text,49,711506
pilot2,A1KGCOR8OXYR72,3WAKVUDHUX56MTBSLJX34R4GZ7RU7J,,3143.9249999821186,,,,,html-button-response,2,18917
pilot2,A2HNFX7M18N1JI,3OONKJ5DKD8YB0UL2EXAANYN0BVBOA,jumping,5842.9550000000745,tangram,isolated,tangram-48.jpg,tangram-187.jpg,survey-text,50,717858
pilot2,A2HNFX7M18N1JI,3OONKJ5DKD8YB0UL2EXAANYN0BVBOA,running,3229.54000000027,tangram,isolated,tangram-55.jpg,N1.jpg,survey-text,51,721594
pilot2,A1KGCOR8OXYR72,3WAKVUDHUX56MTBSLJX34R4GZ7RU7J,person marching,13186.10499985516,tangram,isolated,tangram-48.jpg,tangram-187.jpg,survey-text,3,32607
pilot2,A2HNFX7M18N1JI,3OONKJ5DKD8YB0UL2EXAANYN0BVBOA,Strength ,4806.674999999814,tangram,isolated,tangram-164.jpg,tangram-183.jpg,survey-text,52,726906
pilot2,A1KGCOR8OXYR72,3WAKVUDHUX56MTBSLJX34R4GZ7RU7J,person running,5673.899999819696,tangram,isolated,tangram-67.jpg,tangram-32.jpg,survey-text,4,38784
pilot2,A2HNFX7M18N1JI,3OONKJ5DKD8YB0UL2EXAANYN0BVBOA,reading,5879.369999998715,tangram,isolated,H1.jpg,I1.jpg,survey-text,53,733297
pilot2,A2HNFX7M18N1JI,3OONKJ5DKD8YB0UL2EXAANYN0BVBOA,speed,4174.204999999376,tangram,isolated,tangram-90.jpg,tangram-81.jpg,survey-text,54,737978
pilot2,A1KGCOR8OXYR72,3WAKVUDHUX56MTBSLJX34R4GZ7RU7J,person walking,5107.660000212491,tangram,isolated,tangram-90.jpg,tangram-81.jpg,survey-text,5,44394
pilot2,A2HNFX7M18N1JI,3OONKJ5DKD8YB0UL2EXAANYN0BVBOA,running,3380.8500000013737,tangram,isolated,tangram-67.jpg,tangram-32.jpg,survey-text,55,741866
pilot2,A1KGCOR8OXYR72,3WAKVUDHUX56MTBSLJX34R4GZ7RU7J,person walking,5550.059999804944,tangram,isolated,A2.jpg,tangram-99.jpg,survey-text,6,50446
pilot2,A1KGCOR8OXYR72,3WAKVUDHUX56MTBSLJX34R4GZ7RU7J,person walking,9061.010000295937,tangram,isolated,B1.jpg,P1.jpg,survey-text,7,60009
pilot2,A1KGCOR8OXYR72,3WAKVUDHUX56MTBSLJX34R4GZ7RU7J,person reading,5639.680000022054,tangram,isolated,H1.jpg,I1.jpg,survey-text,8,66152
pilot2,A1KGCOR8OXYR72,3WAKVUDHUX56MTBSLJX34R4GZ7RU7J,person sitting,4894.360000267625,tangram,isolated,tangram-164.jpg,tangram-183.jpg,survey-text,9,71548
pilot2,A1KGCOR8OXYR72,3WAKVUDHUX56MTBSLJX34R4GZ7RU7J,person sprinting,4390.170000027865,tangram,isolated,tangram-55.jpg,N1.jpg,survey-text,10,76441
pilot2,A1KGCOR8OXYR72,3WAKVUDHUX56MTBSLJX34R4GZ7RU7J,,7145.930000115186,,,,,html-button-response,11,84088
pilot2,A1KGCOR8OXYR72,3WAKVUDHUX56MTBSLJX34R4GZ7RU7J,person walking,6712.884999811649,tangram,far,A2.jpg,C1.jpg,survey-text,12,91303
pilot2,A1KGCOR8OXYR72,3WAKVUDHUX56MTBSLJX34R4GZ7RU7J,person reading,5498.989999759942,tangram,far,H1.jpg,tangram-8.jpg,survey-text,13,97305
pilot2,A1KGCOR8OXYR72,3WAKVUDHUX56MTBSLJX34R4GZ7RU7J,person walking,10448.005000129342,tangram,far,B1.jpg,tangram-4.jpg,survey-text,14,108255
pilot2,A1KGCOR8OXYR72,3WAKVUDHUX56MTBSLJX34R4GZ7RU7J,person marching,5703.849999699742,tangram,far,tangram-48.jpg,D1.jpg,survey-text,15,114462
pilot2,A1KGCOR8OXYR72,3WAKVUDHUX56MTBSLJX34R4GZ7RU7J,person running,5958.575000055134,tangram,far,tangram-67.jpg,G1.jpg,survey-text,16,120923
pilot2,A1KGCOR8OXYR72,3WAKVUDHUX56MTBSLJX34R4GZ7RU7J,person walking,5020.51499998197,tangram,far,tangram-90.jpg,tangram-120.jpg,survey-text,17,126446
pilot2,A1KGCOR8OXYR72,3WAKVUDHUX56MTBSLJX34R4GZ7RU7J,person sprinting,5488.605000078678,tangram,far,tangram-55.jpg,tangram-143.jpg,survey-text,18,132438
pilot2,A1KGCOR8OXYR72,3WAKVUDHUX56MTBSLJX34R4GZ7RU7J,person sitting,4259.414999745786,tangram,far,tangram-164.jpg,tangram-64.jpg,survey-text,19,137200
pilot2,A1KGCOR8OXYR72,3WAKVUDHUX56MTBSLJX34R4GZ7RU7J,,2235.594999976456,,,,,html-button-response,20,139936
pilot2,A1KGCOR8OXYR72,3WAKVUDHUX56MTBSLJX34R4GZ7RU7J,high sitting,14427.714999765158,tangram,close,tangram-164.jpg,tangram-183.jpg,survey-text,21,154867
pilot2,A1KGCOR8OXYR72,3WAKVUDHUX56MTBSLJX34R4GZ7RU7J,sad walking,4033.290000166744,tangram,close,B1.jpg,P1.jpg,survey-text,22,159403
pilot2,A1KGCOR8OXYR72,3WAKVUDHUX56MTBSLJX34R4GZ7RU7J,triangle walking,12832.709999755025,tangram,close,tangram-90.jpg,tangram-81.jpg,survey-text,23,172738
pilot2,A1KGCOR8OXYR72,3WAKVUDHUX56MTBSLJX34R4GZ7RU7J,square marching,12930.414999835193,tangram,close,tangram-48.jpg,tangram-187.jpg,survey-text,24,186171
pilot2,A1KGCOR8OXYR72,3WAKVUDHUX56MTBSLJX34R4GZ7RU7J,long stride,6012.475000228733,tangram,close,tangram-67.jpg,tangram-32.jpg,survey-text,25,192687
pilot2,A1KGCOR8OXYR72,3WAKVUDHUX56MTBSLJX34R4GZ7RU7J,standing straight,12466.690000146627,tangram,close,H1.jpg,I1.jpg,survey-text,26,205658
pilot2,A1KGCOR8OXYR72,3WAKVUDHUX56MTBSLJX34R4GZ7RU7J,legs bent,13611.899999901652,tangram,close,tangram-55.jpg,N1.jpg,survey-text,27,219773
pilot2,A26A4HEBGP2MOX,3AZHRG4CU5985OYPL0GT234TEG330M,,10846.690000034869,,,,,external-html,0,10936
pilot2,A26A4HEBGP2MOX,3AZHRG4CU5985OYPL0GT234TEG330M,,6657.724999822676,,,,,html-button-response,1,17597
pilot2,A1KGCOR8OXYR72,3WAKVUDHUX56MTBSLJX34R4GZ7RU7J,walking left,18842.960000038147,tangram,close,A2.jpg,tangram-99.jpg,survey-text,28,239119
pilot2,A1KGCOR8OXYR72,3WAKVUDHUX56MTBSLJX34R4GZ7RU7J,,1941.9499998912215,,,,,html-button-response,29,241563
pilot2,A26A4HEBGP2MOX,3AZHRG4CU5985OYPL0GT234TEG330M,,14554.140000138432,,,,,html-button-response,2,33152
pilot2,A1KGCOR8OXYR72,3WAKVUDHUX56MTBSLJX34R4GZ7RU7J,small bird,13675.5599998869,familiar,close,sparrow.jpg,eagle.jpg,survey-text,30,255741
pilot2,A1KGCOR8OXYR72,3WAKVUDHUX56MTBSLJX34R4GZ7RU7J,kitchen table,5866.675000172108,familiar,close,diningtable.jpg,picnictable.jpg,survey-text,31,262109
pilot2,A1KGCOR8OXYR72,3WAKVUDHUX56MTBSLJX34R4GZ7RU7J,gold fish,4154.525000136346,familiar,close,goldfish.jpg,swordfish.jpg,survey-text,32,266766
pilot2,A26A4HEBGP2MOX,3AZHRG4CU5985OYPL0GT234TEG330M,person running,15786.110000219196,tangram,close,tangram-67.jpg,tangram-32.jpg,survey-text,3,49457
pilot2,A1KGCOR8OXYR72,3WAKVUDHUX56MTBSLJX34R4GZ7RU7J,polo shirt,5734.344999771565,familiar,close,poloshirt.jpg,hawaiishirt.jpg,survey-text,33,273004
pilot2,A1KGCOR8OXYR72,3WAKVUDHUX56MTBSLJX34R4GZ7RU7J,brown bear,5742.085000034422,familiar,close,grizzlybear.jpg,polarbear.jpg,survey-text,34,279249
pilot2,A1KGCOR8OXYR72,3WAKVUDHUX56MTBSLJX34R4GZ7RU7J,M&M,10804.779999889433,familiar,close,mnms.jpg,gummybears.jpg,survey-text,35,290558
pilot2,A1KGCOR8OXYR72,3WAKVUDHUX56MTBSLJX34R4GZ7RU7J,BLUE CAR,3598.2099999673665,familiar,close,sedan.jpg,sportscar.jpg,survey-text,36,294658
pilot2,A26A4HEBGP2MOX,3AZHRG4CU5985OYPL0GT234TEG330M,walking,29515.295000281185,tangram,close,A2.jpg,tangram-99.jpg,survey-text,4,79482
pilot2,A1KGCOR8OXYR72,3WAKVUDHUX56MTBSLJX34R4GZ7RU7J,german shepherd,16845.184999983758,familiar,close,germanshepherd.jpg,pug.jpg,survey-text,37,312006
pilot2,A1KGCOR8OXYR72,3WAKVUDHUX56MTBSLJX34R4GZ7RU7J,,2766.68499968946,,,,,html-button-response,38,315275
pilot2,A1KGCOR8OXYR72,3WAKVUDHUX56MTBSLJX34R4GZ7RU7J,blue polo,4606.790000107139,familiar,isolated,poloshirt.jpg,hawaiishirt.jpg,survey-text,39,320384
pilot2,A26A4HEBGP2MOX,3AZHRG4CU5985OYPL0GT234TEG330M,Giving speech,24175.32499972731,tangram,close,H1.jpg,I1.jpg,survey-text,5,104161
pilot2,A1KGCOR8OXYR72,3WAKVUDHUX56MTBSLJX34R4GZ7RU7J,m&m,10369.019999634475,familiar,isolated,mnms.jpg,gummybears.jpg,survey-text,40,331257
pilot2,A1KGCOR8OXYR72,3WAKVUDHUX56MTBSLJX34R4GZ7RU7J,table,3937.029999680817,familiar,isolated,diningtable.jpg,picnictable.jpg,survey-text,41,335696
pilot2,A26A4HEBGP2MOX,3AZHRG4CU5985OYPL0GT234TEG330M,kick,14954.274999909103,tangram,close,tangram-164.jpg,tangram-183.jpg,survey-text,6,119618
pilot2,A1KGCOR8OXYR72,3WAKVUDHUX56MTBSLJX34R4GZ7RU7J,bird,3906.2899998389184,familiar,isolated,sparrow.jpg,eagle.jpg,survey-text,42,340105
pilot2,A1KGCOR8OXYR72,3WAKVUDHUX56MTBSLJX34R4GZ7RU7J,goldfish,1841.4900000207126,familiar,isolated,goldfish.jpg,swordfish.jpg,survey-text,43,342449
pilot2,A1KGCOR8OXYR72,3WAKVUDHUX56MTBSLJX34R4GZ7RU7J,brown bear,5352.500000037253,familiar,isolated,grizzlybear.jpg,polarbear.jpg,survey-text,44,348304
pilot2,A26A4HEBGP2MOX,3AZHRG4CU5985OYPL0GT234TEG330M,falling person,8754.184999968857,tangram,close,B1.jpg,P1.jpg,survey-text,7,128875
pilot2,A1KGCOR8OXYR72,3WAKVUDHUX56MTBSLJX34R4GZ7RU7J,german shepherd,2721.415000036359,familiar,isolated,germanshepherd.jpg,pug.jpg,survey-text,45,351528
pilot2,A1KGCOR8OXYR72,3WAKVUDHUX56MTBSLJX34R4GZ7RU7J,blue car,2138.4549997746944,familiar,isolated,sedan.jpg,sportscar.jpg,survey-text,46,354169
pilot2,A26A4HEBGP2MOX,3AZHRG4CU5985OYPL0GT234TEG330M,karate kick,7662.205000407994,tangram,close,tangram-48.jpg,tangram-187.jpg,survey-text,8,137040
pilot2,A1KGCOR8OXYR72,3WAKVUDHUX56MTBSLJX34R4GZ7RU7J,,7587.035000324249,,,,,html-button-response,47,362258
pilot2,A1KGCOR8OXYR72,3WAKVUDHUX56MTBSLJX34R4GZ7RU7J,bird,3712.2499998658895,familiar,far,sparrow.jpg,squirrel.jpg,survey-text,48,366472
pilot2,A26A4HEBGP2MOX,3AZHRG4CU5985OYPL0GT234TEG330M,dashing,11555.079999845475,tangram,close,tangram-55.jpg,N1.jpg,survey-text,9,149098
pilot2,A1KGCOR8OXYR72,3WAKVUDHUX56MTBSLJX34R4GZ7RU7J,shirt,3977.1250002086163,familiar,far,poloshirt.jpg,dress.jpg,survey-text,49,370953
pilot2,A1KGCOR8OXYR72,3WAKVUDHUX56MTBSLJX34R4GZ7RU7J,fish,2736.8999999016523,familiar,far,goldfish.jpg,iguana.jpg,survey-text,50,374192
pilot2,A1KGCOR8OXYR72,3WAKVUDHUX56MTBSLJX34R4GZ7RU7J,bear,1961.270000319928,familiar,far,grizzlybear.jpg,lion.jpg,survey-text,51,376656
pilot2,A1KGCOR8OXYR72,3WAKVUDHUX56MTBSLJX34R4GZ7RU7J,dog,1377.0600003190339,familiar,far,germanshepherd.jpg,cow.jpg,survey-text,52,378536
pilot2,A1KGCOR8OXYR72,3WAKVUDHUX56MTBSLJX34R4GZ7RU7J,car,1433.2900000736117,familiar,far,sedan.jpg,firetruck.jpg,survey-text,53,380472
pilot2,A26A4HEBGP2MOX,3AZHRG4CU5985OYPL0GT234TEG330M,arms outstretched,11912.609999999404,tangram,close,tangram-90.jpg,tangram-81.jpg,survey-text,10,161514
pilot2,A1KGCOR8OXYR72,3WAKVUDHUX56MTBSLJX34R4GZ7RU7J,candy,2361.1099999397993,familiar,far,mnms.jpg,pretzels.jpg,survey-text,54,383336
pilot2,A26A4HEBGP2MOX,3AZHRG4CU5985OYPL0GT234TEG330M,,2072.7900001220405,,,,,html-button-response,11,164088
pilot2,A1KGCOR8OXYR72,3WAKVUDHUX56MTBSLJX34R4GZ7RU7J,table,2009.9499998614192,familiar,far,diningtable.jpg,wardrobe.jpg,survey-text,55,385849
pilot2,A26A4HEBGP2MOX,3AZHRG4CU5985OYPL0GT234TEG330M,Dashing,14670.384999830276,tangram,isolated,tangram-55.jpg,N1.jpg,survey-text,12,179261
pilot2,A26A4HEBGP2MOX,3AZHRG4CU5985OYPL0GT234TEG330M,Kicking,5826.510000042617,tangram,isolated,tangram-48.jpg,tangram-187.jpg,survey-text,13,185590
pilot2,A26A4HEBGP2MOX,3AZHRG4CU5985OYPL0GT234TEG330M,Falling,7020.619999617338,tangram,isolated,B1.jpg,P1.jpg,survey-text,14,193113
pilot2,A26A4HEBGP2MOX,3AZHRG4CU5985OYPL0GT234TEG330M,Arms outstretched,13011.780000291765,tangram,isolated,tangram-90.jpg,tangram-81.jpg,survey-text,15,206628
pilot2,A26A4HEBGP2MOX,3AZHRG4CU5985OYPL0GT234TEG330M,Running,5556.214999873191,tangram,isolated,tangram-67.jpg,tangram-32.jpg,survey-text,16,212687
pilot2,A26A4HEBGP2MOX,3AZHRG4CU5985OYPL0GT234TEG330M,Walking,7074.260000139475,tangram,isolated,A2.jpg,tangram-99.jpg,survey-text,17,220265
pilot2,A26A4HEBGP2MOX,3AZHRG4CU5985OYPL0GT234TEG330M,Mid kick,8417.93500026688,tangram,isolated,tangram-164.jpg,tangram-183.jpg,survey-text,18,229185
pilot2,A26A4HEBGP2MOX,3AZHRG4CU5985OYPL0GT234TEG330M,Speech,6667.06999996677,tangram,isolated,H1.jpg,I1.jpg,survey-text,19,236355
pilot2,A26A4HEBGP2MOX,3AZHRG4CU5985OYPL0GT234TEG330M,,2795.195000246167,,,,,html-button-response,20,239651
pilot2,A26A4HEBGP2MOX,3AZHRG4CU5985OYPL0GT234TEG330M,Active,44654.12999968976,tangram,far,tangram-48.jpg,D1.jpg,survey-text,21,284820
pilot2,A26A4HEBGP2MOX,3AZHRG4CU5985OYPL0GT234TEG330M,Agrression,15067.640000022948,tangram,far,tangram-164.jpg,tangram-64.jpg,survey-text,22,300391
pilot2,A26A4HEBGP2MOX,3AZHRG4CU5985OYPL0GT234TEG330M,Dancing,9664.325000252575,tangram,far,tangram-90.jpg,tangram-120.jpg,survey-text,23,310558
pilot2,A26A4HEBGP2MOX,3AZHRG4CU5985OYPL0GT234TEG330M,Giving speech,13994.880000129342,tangram,far,H1.jpg,tangram-8.jpg,survey-text,24,325056
pilot2,A26A4HEBGP2MOX,3AZHRG4CU5985OYPL0GT234TEG330M,Falling over,8747.830000240356,tangram,far,B1.jpg,tangram-4.jpg,survey-text,25,334306
pilot2,A26A4HEBGP2MOX,3AZHRG4CU5985OYPL0GT234TEG330M,Sprinting,8198.665000032634,tangram,far,tangram-67.jpg,G1.jpg,survey-text,26,343008
pilot2,A26A4HEBGP2MOX,3AZHRG4CU5985OYPL0GT234TEG330M,Dashing,6260.804999619722,tangram,far,tangram-55.jpg,tangram-143.jpg,survey-text,27,349772
pilot2,A26A4HEBGP2MOX,3AZHRG4CU5985OYPL0GT234TEG330M,Walking,6048.964999616146,tangram,far,A2.jpg,C1.jpg,survey-text,28,356324
pilot2,A26A4HEBGP2MOX,3AZHRG4CU5985OYPL0GT234TEG330M,,2668.1200000457466,,,,,html-button-response,29,359493
pilot2,A26A4HEBGP2MOX,3AZHRG4CU5985OYPL0GT234TEG330M,Table,8137.769999913871,familiar,far,diningtable.jpg,wardrobe.jpg,survey-text,30,368133
pilot2,A26A4HEBGP2MOX,3AZHRG4CU5985OYPL0GT234TEG330M,Sedan,6396.184999961406,familiar,far,sedan.jpg,firetruck.jpg,survey-text,31,375033
pilot2,A26A4HEBGP2MOX,3AZHRG4CU5985OYPL0GT234TEG330M,Candy,6320.434999652207,familiar,far,mnms.jpg,pretzels.jpg,survey-text,32,381856
pilot2,A26A4HEBGP2MOX,3AZHRG4CU5985OYPL0GT234TEG330M,Dog,5072.2550000064075,familiar,far,germanshepherd.jpg,cow.jpg,survey-text,33,387432
pilot2,A26A4HEBGP2MOX,3AZHRG4CU5985OYPL0GT234TEG330M,Bear,4002.394999843091,familiar,far,grizzlybear.jpg,lion.jpg,survey-text,34,391939
pilot2,A26A4HEBGP2MOX,3AZHRG4CU5985OYPL0GT234TEG330M,Bird,4724.429999943823,familiar,far,sparrow.jpg,squirrel.jpg,survey-text,35,397165
pilot2,A26A4HEBGP2MOX,3AZHRG4CU5985OYPL0GT234TEG330M,Polo Shirt,6607.290000189096,familiar,far,poloshirt.jpg,dress.jpg,survey-text,36,404276
pilot2,A26A4HEBGP2MOX,3AZHRG4CU5985OYPL0GT234TEG330M,Goldfish,5610.090000089258,familiar,far,goldfish.jpg,iguana.jpg,survey-text,37,410389
pilot2,A26A4HEBGP2MOX,3AZHRG4CU5985OYPL0GT234TEG330M,,1415.2799998410046,,,,,html-button-response,38,412306
pilot2,A26A4HEBGP2MOX,3AZHRG4CU5985OYPL0GT234TEG330M,German Shepard,8838.930000085384,familiar,close,germanshepherd.jpg,pug.jpg,survey-text,39,421648
pilot2,A26A4HEBGP2MOX,3AZHRG4CU5985OYPL0GT234TEG330M,Polo Shirt,8260.139999911189,familiar,close,poloshirt.jpg,hawaiishirt.jpg,survey-text,40,430413
pilot2,A26A4HEBGP2MOX,3AZHRG4CU5985OYPL0GT234TEG330M,Goldfish,6518.160000443459,familiar,close,goldfish.jpg,swordfish.jpg,survey-text,41,437434
pilot2,A26A4HEBGP2MOX,3AZHRG4CU5985OYPL0GT234TEG330M,Kitchen table,11485.040000174195,familiar,close,diningtable.jpg,picnictable.jpg,survey-text,42,449422
pilot2,A26A4HEBGP2MOX,3AZHRG4CU5985OYPL0GT234TEG330M,Brown bear,6554.045000113547,familiar,close,grizzlybear.jpg,polarbear.jpg,survey-text,43,456479
pilot2,A26A4HEBGP2MOX,3AZHRG4CU5985OYPL0GT234TEG330M,Sparrow,7692.720000166446,familiar,close,sparrow.jpg,eagle.jpg,survey-text,44,464674
pilot2,A33BYDSAFW6PK,3HL8HNGX46QLHU2V5R0OWNUJKA89FJ,,6864.999999990687,,,,,external-html,0,7548
pilot2,A33BYDSAFW6PK,3HL8HNGX46QLHU2V5R0OWNUJKA89FJ,,1795.0000000419095,,,,,html-button-response,1,9347
pilot2,A33BYDSAFW6PK,3HL8HNGX46QLHU2V5R0OWNUJKA89FJ,,1577.0000000484288,,,,,html-button-response,2,11927
pilot2,A26A4HEBGP2MOX,3AZHRG4CU5985OYPL0GT234TEG330M,Chocolate,12587.14499976486,familiar,close,mnms.jpg,gummybears.jpg,survey-text,45,477770
pilot2,A33BYDSAFW6PK,3HL8HNGX46QLHU2V5R0OWNUJKA89FJ,k,9245.000000111759,tangram,isolated,tangram-164.jpg,tangram-183.jpg,survey-text,3,21678
pilot2,A26A4HEBGP2MOX,3AZHRG4CU5985OYPL0GT234TEG330M,Sedan,9371.470000129193,familiar,close,sedan.jpg,sportscar.jpg,survey-text,46,487644
pilot2,A33BYDSAFW6PK,3HL8HNGX46QLHU2V5R0OWNUJKA89FJ,i,2944.000000017695,tangram,isolated,A2.jpg,tangram-99.jpg,survey-text,4,25127
pilot2,A26A4HEBGP2MOX,3AZHRG4CU5985OYPL0GT234TEG330M,,1596.685000229627,,,,,html-button-response,47,489742
pilot2,A33BYDSAFW6PK,3HL8HNGX46QLHU2V5R0OWNUJKA89FJ,i,2395.9999999497086,tangram,isolated,H1.jpg,I1.jpg,survey-text,5,28027
pilot2,A33BYDSAFW6PK,3HL8HNGX46QLHU2V5R0OWNUJKA89FJ,i,1793.999999994412,tangram,isolated,tangram-48.jpg,tangram-187.jpg,survey-text,6,30326
pilot2,A26A4HEBGP2MOX,3AZHRG4CU5985OYPL0GT234TEG330M,Bear,5959.829999599606,familiar,isolated,grizzlybear.jpg,polarbear.jpg,survey-text,48,496205
pilot2,A33BYDSAFW6PK,3HL8HNGX46QLHU2V5R0OWNUJKA89FJ,i,9336.000000010245,tangram,isolated,tangram-55.jpg,N1.jpg,survey-text,7,40168
pilot2,A26A4HEBGP2MOX,3AZHRG4CU5985OYPL0GT234TEG330M,Bird,7233.435000292957,familiar,isolated,sparrow.jpg,eagle.jpg,survey-text,49,503941
pilot2,A33BYDSAFW6PK,3HL8HNGX46QLHU2V5R0OWNUJKA89FJ,i,3232.9999998910353,tangram,isolated,tangram-67.jpg,tangram-32.jpg,survey-text,8,43906
pilot2,A26A4HEBGP2MOX,3AZHRG4CU5985OYPL0GT234TEG330M,Car,3434.705000370741,familiar,isolated,sedan.jpg,sportscar.jpg,survey-text,50,507880
pilot2,A33BYDSAFW6PK,3HL8HNGX46QLHU2V5R0OWNUJKA89FJ,i,2751.0000000474975,tangram,isolated,tangram-90.jpg,tangram-81.jpg,survey-text,9,47166
pilot2,A26A4HEBGP2MOX,3AZHRG4CU5985OYPL0GT234TEG330M,Candy,4265.714999753982,familiar,isolated,mnms.jpg,gummybears.jpg,survey-text,51,512649
pilot2,A26A4HEBGP2MOX,3AZHRG4CU5985OYPL0GT234TEG330M,Dog,3955.670000053942,familiar,isolated,germanshepherd.jpg,pug.jpg,survey-text,52,517108
pilot2,A26A4HEBGP2MOX,3AZHRG4CU5985OYPL0GT234TEG330M,Fish,4372.260000091046,familiar,isolated,goldfish.jpg,swordfish.jpg,survey-text,53,521983
pilot2,A26A4HEBGP2MOX,3AZHRG4CU5985OYPL0GT234TEG330M,Table,4783.859999850392,familiar,isolated,diningtable.jpg,picnictable.jpg,survey-text,54,527269
pilot2,A26A4HEBGP2MOX,3AZHRG4CU5985OYPL0GT234TEG330M,Shirt,4038.1649998016655,familiar,isolated,poloshirt.jpg,hawaiishirt.jpg,survey-text,55,531810
pilot2,A3NBNSLRLDTLOG,304SM51WA4TD9SME9VEJUS8OX0YBS7,,20635.999999940395,,,,,external-html,0,20914
pilot2,A3NBNSLRLDTLOG,304SM51WA4TD9SME9VEJUS8OX0YBS7,,9222.999999998137,,,,,html-button-response,1,30150
pilot2,A3NBNSLRLDTLOG,304SM51WA4TD9SME9VEJUS8OX0YBS7,,4043.999999994412,,,,,html-button-response,2,35199
pilot2,A3NBNSLRLDTLOG,304SM51WA4TD9SME9VEJUS8OX0YBS7,chair,7882.999999914318,familiar,isolated,diningtable.jpg,picnictable.jpg,survey-text,3,43606
pilot2,A3NBNSLRLDTLOG,304SM51WA4TD9SME9VEJUS8OX0YBS7,car,4254.999999888241,familiar,isolated,sedan.jpg,sportscar.jpg,survey-text,4,48394
pilot2,A3NBNSLRLDTLOG,304SM51WA4TD9SME9VEJUS8OX0YBS7,bear,4988.0000001285225,familiar,isolated,grizzlybear.jpg,polarbear.jpg,survey-text,5,53898
pilot2,A3NBNSLRLDTLOG,304SM51WA4TD9SME9VEJUS8OX0YBS7,dog,7793.999999994412,familiar,isolated,germanshepherd.jpg,pug.jpg,survey-text,6,62204
pilot2,A3NBNSLRLDTLOG,304SM51WA4TD9SME9VEJUS8OX0YBS7,shirt,5515.000000130385,familiar,isolated,poloshirt.jpg,hawaiishirt.jpg,survey-text,7,68239
pilot2,A3NBNSLRLDTLOG,304SM51WA4TD9SME9VEJUS8OX0YBS7,bird,14787.999999942258,familiar,isolated,sparrow.jpg,eagle.jpg,survey-text,8,83551
pilot2,A3NBNSLRLDTLOG,304SM51WA4TD9SME9VEJUS8OX0YBS7,jeams,9371.999999973923,familiar,isolated,mnms.jpg,gummybears.jpg,survey-text,9,93533
pilot2,A3NBNSLRLDTLOG,304SM51WA4TD9SME9VEJUS8OX0YBS7,fish,5111.000000033528,familiar,isolated,goldfish.jpg,swordfish.jpg,survey-text,10,99155
pilot2,A3NBNSLRLDTLOG,304SM51WA4TD9SME9VEJUS8OX0YBS7,,2999.000000068918,,,,,html-button-response,11,102660
pilot2,A3NBNSLRLDTLOG,304SM51WA4TD9SME9VEJUS8OX0YBS7,bear,6457.000000169501,familiar,close,grizzlybear.jpg,polarbear.jpg,survey-text,12,109645
pilot2,A3NBNSLRLDTLOG,304SM51WA4TD9SME9VEJUS8OX0YBS7,car,3794.999999925494,familiar,close,sedan.jpg,sportscar.jpg,survey-text,13,113974
pilot2,A3NBNSLRLDTLOG,304SM51WA4TD9SME9VEJUS8OX0YBS7,dog,3590.000000083819,familiar,close,germanshepherd.jpg,pug.jpg,survey-text,14,118073
pilot2,A3NBNSLRLDTLOG,304SM51WA4TD9SME9VEJUS8OX0YBS7,bird,4989.000000059605,familiar,close,sparrow.jpg,eagle.jpg,survey-text,15,123573
pilot2,A3NBNSLRLDTLOG,304SM51WA4TD9SME9VEJUS8OX0YBS7,shirt,4675.000000046566,familiar,close,poloshirt.jpg,hawaiishirt.jpg,survey-text,16,128764
pilot2,A3NBNSLRLDTLOG,304SM51WA4TD9SME9VEJUS8OX0YBS7,jeams,8153.000000165775,familiar,close,mnms.jpg,gummybears.jpg,survey-text,17,137425
pilot2,A3NBNSLRLDTLOG,304SM51WA4TD9SME9VEJUS8OX0YBS7,fish,10885.999999940395,familiar,close,goldfish.jpg,swordfish.jpg,survey-text,18,148829
pilot2,A3NBNSLRLDTLOG,304SM51WA4TD9SME9VEJUS8OX0YBS7,chair,11192.999999970198,familiar,close,diningtable.jpg,picnictable.jpg,survey-text,19,160545
pilot2,A3NBNSLRLDTLOG,304SM51WA4TD9SME9VEJUS8OX0YBS7,,1706.000000005588,,,,,html-button-response,20,162757
pilot2,A3NBNSLRLDTLOG,304SM51WA4TD9SME9VEJUS8OX0YBS7,man,5719.99999997206,tangram,isolated,H1.jpg,I1.jpg,survey-text,21,168986
pilot2,A3NBNSLRLDTLOG,304SM51WA4TD9SME9VEJUS8OX0YBS7,run,5217.999999877065,tangram,isolated,tangram-55.jpg,N1.jpg,survey-text,22,174728
pilot2,A3NBNSLRLDTLOG,304SM51WA4TD9SME9VEJUS8OX0YBS7,walk,4557.000000029802,tangram,isolated,tangram-90.jpg,tangram-81.jpg,survey-text,23,179813
pilot2,A3NBNSLRLDTLOG,304SM51WA4TD9SME9VEJUS8OX0YBS7,run,4503.000000026077,tangram,isolated,tangram-67.jpg,tangram-32.jpg,survey-text,24,184833
pilot2,A3NBNSLRLDTLOG,304SM51WA4TD9SME9VEJUS8OX0YBS7,fight,5526.0000000707805,tangram,isolated,tangram-48.jpg,tangram-187.jpg,survey-text,25,190873
pilot2,A3NBNSLRLDTLOG,304SM51WA4TD9SME9VEJUS8OX0YBS7,fight,7128.000000026077,tangram,isolated,A2.jpg,tangram-99.jpg,survey-text,26,198550
pilot2,A3NBNSLRLDTLOG,304SM51WA4TD9SME9VEJUS8OX0YBS7,walk,10300.999999977648,tangram,isolated,B1.jpg,P1.jpg,survey-text,27,209432
pilot2,A1T643M1P572AA,3HUTX6F6VVC4NNUPJL4Z9UVJ65R2O8,,17859.525000007125,,,,,external-html,0,17955
pilot2,A1T643M1P572AA,3HUTX6F6VVC4NNUPJL4Z9UVJ65R2O8,,4243.195000017295,,,,,html-button-response,1,22203
pilot2,A1T643M1P572AA,3HUTX6F6VVC4NNUPJL4Z9UVJ65R2O8,,2396.4649999979883,,,,,html-button-response,2,25602
pilot2,A1T643M1P572AA,3HUTX6F6VVC4NNUPJL4Z9UVJ65R2O8,person,10327.255000011064,tangram,isolated,A2.jpg,tangram-99.jpg,survey-text,3,36450
pilot2,A3NBNSLRLDTLOG,304SM51WA4TD9SME9VEJUS8OX0YBS7,sit,43421.00000008941,tangram,isolated,tangram-164.jpg,tangram-183.jpg,survey-text,28,253375
pilot2,A3NBNSLRLDTLOG,304SM51WA4TD9SME9VEJUS8OX0YBS7,,1692.0000000391155,,,,,html-button-response,29,255573
pilot2,A1T643M1P572AA,3HUTX6F6VVC4NNUPJL4Z9UVJ65R2O8,kicking,6406.264999997802,tangram,isolated,tangram-164.jpg,tangram-183.jpg,survey-text,4,43364
pilot2,A3NBNSLRLDTLOG,304SM51WA4TD9SME9VEJUS8OX0YBS7,chair,4416.999999899417,familiar,far,diningtable.jpg,wardrobe.jpg,survey-text,30,260506
pilot2,A3NBNSLRLDTLOG,304SM51WA4TD9SME9VEJUS8OX0YBS7,dog,3452.000000048429,familiar,far,germanshepherd.jpg,cow.jpg,survey-text,31,264483
pilot2,A3NBNSLRLDTLOG,304SM51WA4TD9SME9VEJUS8OX0YBS7,fish,8425.000000046566,familiar,far,goldfish.jpg,iguana.jpg,survey-text,32,273432
pilot2,A3NBNSLRLDTLOG,304SM51WA4TD9SME9VEJUS8OX0YBS7,bird,7313.000000081956,familiar,far,sparrow.jpg,squirrel.jpg,survey-text,33,281270
pilot2,A3NBNSLRLDTLOG,304SM51WA4TD9SME9VEJUS8OX0YBS7,car,4335.999999893829,familiar,far,sedan.jpg,firetruck.jpg,survey-text,34,286119
pilot2,A3NBNSLRLDTLOG,304SM51WA4TD9SME9VEJUS8OX0YBS7,james,5748.999999836087,familiar,far,mnms.jpg,pretzels.jpg,survey-text,35,292383
pilot2,A3NBNSLRLDTLOG,304SM51WA4TD9SME9VEJUS8OX0YBS7,bear,5216.000000014901,familiar,far,grizzlybear.jpg,lion.jpg,survey-text,36,298213
pilot2,A3NBNSLRLDTLOG,304SM51WA4TD9SME9VEJUS8OX0YBS7,shirt,9429.000000003725,familiar,far,poloshirt.jpg,dress.jpg,survey-text,37,308156
pilot2,A3NBNSLRLDTLOG,304SM51WA4TD9SME9VEJUS8OX0YBS7,,1599.9999998603016,,,,,html-button-response,38,310265
pilot2,A3NBNSLRLDTLOG,304SM51WA4TD9SME9VEJUS8OX0YBS7,sit,14802.000000141561,tangram,far,H1.jpg,tangram-8.jpg,survey-text,39,325584
pilot2,A3NBNSLRLDTLOG,304SM51WA4TD9SME9VEJUS8OX0YBS7,run,6310.000000055879,tangram,far,tangram-55.jpg,tangram-143.jpg,survey-text,40,332406
pilot2,A3NBNSLRLDTLOG,304SM51WA4TD9SME9VEJUS8OX0YBS7,walk,4971.999999834225,tangram,far,B1.jpg,tangram-4.jpg,survey-text,41,337905
pilot2,A3NBNSLRLDTLOG,304SM51WA4TD9SME9VEJUS8OX0YBS7,fight,4636.000000173226,tangram,far,tangram-90.jpg,tangram-120.jpg,survey-text,42,343070
pilot2,A3NBNSLRLDTLOG,304SM51WA4TD9SME9VEJUS8OX0YBS7,sit,4956.000000005588,tangram,far,tangram-164.jpg,tangram-64.jpg,survey-text,43,348551
pilot2,A3NBNSLRLDTLOG,304SM51WA4TD9SME9VEJUS8OX0YBS7,fight,4957.999999867752,tangram,far,A2.jpg,C1.jpg,survey-text,44,354023
pilot2,A3NBNSLRLDTLOG,304SM51WA4TD9SME9VEJUS8OX0YBS7,fight,5077.999999979511,tangram,far,tangram-48.jpg,D1.jpg,survey-text,45,359625
pilot2,A3NBNSLRLDTLOG,304SM51WA4TD9SME9VEJUS8OX0YBS7,fight,11795.000000158325,tangram,far,tangram-67.jpg,G1.jpg,survey-text,46,371935
pilot2,A3NBNSLRLDTLOG,304SM51WA4TD9SME9VEJUS8OX0YBS7,,1742.0000000856817,,,,,html-button-response,47,374192
pilot2,A3NBNSLRLDTLOG,304SM51WA4TD9SME9VEJUS8OX0YBS7,fight,4331.000000005588,tangram,close,A2.jpg,tangram-99.jpg,survey-text,48,379038
pilot2,A3NBNSLRLDTLOG,304SM51WA4TD9SME9VEJUS8OX0YBS7,fight,3349.00000016205,tangram,close,tangram-48.jpg,tangram-187.jpg,survey-text,49,382898
pilot2,A3NBNSLRLDTLOG,304SM51WA4TD9SME9VEJUS8OX0YBS7,sit,4181.00000009872,tangram,close,H1.jpg,I1.jpg,survey-text,50,387600
pilot2,A3NBNSLRLDTLOG,304SM51WA4TD9SME9VEJUS8OX0YBS7,fight,4342.000000178814,tangram,close,tangram-67.jpg,tangram-32.jpg,survey-text,51,392539
pilot2,A3NBNSLRLDTLOG,304SM51WA4TD9SME9VEJUS8OX0YBS7,run,3362.999999895692,tangram,close,tangram-55.jpg,N1.jpg,survey-text,52,396435
pilot2,A3NBNSLRLDTLOG,304SM51WA4TD9SME9VEJUS8OX0YBS7,sit,7222.999999998137,tangram,close,tangram-164.jpg,tangram-183.jpg,survey-text,53,404208
pilot2,A3NBNSLRLDTLOG,304SM51WA4TD9SME9VEJUS8OX0YBS7,fight,5012.000000104308,tangram,close,tangram-90.jpg,tangram-81.jpg,survey-text,54,409746
pilot2,A3NBNSLRLDTLOG,304SM51WA4TD9SME9VEJUS8OX0YBS7,walk,4279.000000096858,tangram,close,B1.jpg,P1.jpg,survey-text,55,414539
pilot2,A3THO9TNFICLD1,3NS0A6KXC5X61LG3K905RWWO0SPZGG,,19227.340000001277,,,,,external-html,0,19297
pilot2,A3THO9TNFICLD1,3NS0A6KXC5X61LG3K905RWWO0SPZGG,,1045.7900000001246,,,,,html-button-response,1,20345
pilot2,A3THO9TNFICLD1,3NS0A6KXC5X61LG3K905RWWO0SPZGG,,35695.03000000259,,,,,html-button-response,2,57048
pilot2,A3THO9TNFICLD1,3NS0A6KXC5X61LG3K905RWWO0SPZGG,a person running,13375.059999998484,tangram,far,tangram-67.jpg,G1.jpg,survey-text,3,70928
pilot2,A3THO9TNFICLD1,3NS0A6KXC5X61LG3K905RWWO0SPZGG,a person kicking,2958.84500000102,tangram,far,tangram-48.jpg,D1.jpg,survey-text,4,74389
pilot2,A3THO9TNFICLD1,3NS0A6KXC5X61LG3K905RWWO0SPZGG,a person crossing their legs,4936.555000000226,tangram,far,tangram-164.jpg,tangram-64.jpg,survey-text,5,79829
pilot2,A3THO9TNFICLD1,3NS0A6KXC5X61LG3K905RWWO0SPZGG,a person running,2667.105000000447,tangram,far,tangram-55.jpg,tangram-143.jpg,survey-text,6,82998
pilot2,A3THO9TNFICLD1,3NS0A6KXC5X61LG3K905RWWO0SPZGG,a person with legs,6678.895000000921,tangram,far,tangram-90.jpg,tangram-120.jpg,survey-text,7,90179
pilot2,A3THO9TNFICLD1,3NS0A6KXC5X61LG3K905RWWO0SPZGG,sharp corners,6800.144999997428,tangram,far,A2.jpg,C1.jpg,survey-text,8,97494
pilot2,A3THO9TNFICLD1,3NS0A6KXC5X61LG3K905RWWO0SPZGG,more boxy,3349.8099999997066,tangram,far,H1.jpg,tangram-8.jpg,survey-text,9,101347
pilot2,A3THO9TNFICLD1,3NS0A6KXC5X61LG3K905RWWO0SPZGG,a person walking,3181.140000000596,tangram,far,B1.jpg,tangram-4.jpg,survey-text,10,105030
pilot2,A3THO9TNFICLD1,3NS0A6KXC5X61LG3K905RWWO0SPZGG,,1984.4200000006822,,,,,html-button-response,11,107516
pilot2,A3THO9TNFICLD1,3NS0A6KXC5X61LG3K905RWWO0SPZGG,blue car,2985.5349999997998,familiar,isolated,sedan.jpg,sportscar.jpg,survey-text,12,111005
pilot2,A3THO9TNFICLD1,3NS0A6KXC5X61LG3K905RWWO0SPZGG,dog,2116.0600000002887,familiar,isolated,germanshepherd.jpg,pug.jpg,survey-text,13,113623
pilot2,A3THO9TNFICLD1,3NS0A6KXC5X61LG3K905RWWO0SPZGG,eminems,2314.76499999917,familiar,isolated,mnms.jpg,gummybears.jpg,survey-text,14,116440
pilot2,A3THO9TNFICLD1,3NS0A6KXC5X61LG3K905RWWO0SPZGG,fish,1083.6049999998068,familiar,isolated,goldfish.jpg,swordfish.jpg,survey-text,15,118027
pilot2,A3THO9TNFICLD1,3NS0A6KXC5X61LG3K905RWWO0SPZGG,bird,1518.8549999984389,familiar,isolated,sparrow.jpg,eagle.jpg,survey-text,16,120048
pilot2,A3THO9TNFICLD1,3NS0A6KXC5X61LG3K905RWWO0SPZGG,shirt,1091.3599999985308,familiar,isolated,poloshirt.jpg,hawaiishirt.jpg,survey-text,17,121655
pilot2,A3THO9TNFICLD1,3NS0A6KXC5X61LG3K905RWWO0SPZGG,table,1455.7199999981094,familiar,isolated,diningtable.jpg,picnictable.jpg,survey-text,18,123613
pilot2,A3THO9TNFICLD1,3NS0A6KXC5X61LG3K905RWWO0SPZGG,bear,1303.3999999970547,familiar,isolated,grizzlybear.jpg,polarbear.jpg,survey-text,19,125419
pilot2,A3THO9TNFICLD1,3NS0A6KXC5X61LG3K905RWWO0SPZGG,,1374.5249999992666,,,,,html-button-response,20,127295
pilot2,A3THO9TNFICLD1,3NS0A6KXC5X61LG3K905RWWO0SPZGG,a person kicking,2589.814999999362,tangram,isolated,tangram-48.jpg,tangram-187.jpg,survey-text,21,130389
pilot2,A3THO9TNFICLD1,3NS0A6KXC5X61LG3K905RWWO0SPZGG,a person sitting,2144.0400000028603,tangram,isolated,tangram-164.jpg,tangram-183.jpg,survey-text,22,133034
pilot2,A3THO9TNFICLD1,3NS0A6KXC5X61LG3K905RWWO0SPZGG,diamond shape,6125.52499999947,tangram,isolated,H1.jpg,I1.jpg,survey-text,23,139662
pilot2,A3THO9TNFICLD1,3NS0A6KXC5X61LG3K905RWWO0SPZGG,a person throwing something,6005.014999998821,tangram,isolated,A2.jpg,tangram-99.jpg,survey-text,24,146169
pilot2,A3THO9TNFICLD1,3NS0A6KXC5X61LG3K905RWWO0SPZGG,a person looking down,2876.795000000129,tangram,isolated,B1.jpg,P1.jpg,survey-text,25,149548
pilot2,A3THO9TNFICLD1,3NS0A6KXC5X61LG3K905RWWO0SPZGG,a person sprinting,3360.384999999951,tangram,isolated,tangram-67.jpg,tangram-32.jpg,survey-text,26,153410
pilot2,A3THO9TNFICLD1,3NS0A6KXC5X61LG3K905RWWO0SPZGG,a person with arms,2681.8050000001676,tangram,isolated,tangram-90.jpg,tangram-81.jpg,survey-text,27,156595
pilot2,A3THO9TNFICLD1,3NS0A6KXC5X61LG3K905RWWO0SPZGG,a person running fast,4736.935000000813,tangram,isolated,tangram-55.jpg,N1.jpg,survey-text,28,161834
pilot2,A3THO9TNFICLD1,3NS0A6KXC5X61LG3K905RWWO0SPZGG,,1366.715000000113,,,,,html-button-response,29,163702
pilot2,A3THO9TNFICLD1,3NS0A6KXC5X61LG3K905RWWO0SPZGG,blue car,3414.3000000003667,familiar,far,sedan.jpg,firetruck.jpg,survey-text,30,167619
pilot2,A3THO9TNFICLD1,3NS0A6KXC5X61LG3K905RWWO0SPZGG,bear,2156.8200000001525,familiar,far,grizzlybear.jpg,lion.jpg,survey-text,31,170279
pilot2,A3THO9TNFICLD1,3NS0A6KXC5X61LG3K905RWWO0SPZGG,dog,1344.4799999997485,familiar,far,germanshepherd.jpg,cow.jpg,survey-text,32,172126
pilot2,A3THO9TNFICLD1,3NS0A6KXC5X61LG3K905RWWO0SPZGG,fish,991.8849999994563,familiar,far,goldfish.jpg,iguana.jpg,survey-text,33,173620
pilot2,A3THO9TNFICLD1,3NS0A6KXC5X61LG3K905RWWO0SPZGG,candy,1792.3750000009022,familiar,far,mnms.jpg,pretzels.jpg,survey-text,34,175915
pilot2,A3THO9TNFICLD1,3NS0A6KXC5X61LG3K905RWWO0SPZGG,shirt,1589.3050000013318,familiar,far,poloshirt.jpg,dress.jpg,survey-text,35,178007
pilot2,A3THO9TNFICLD1,3NS0A6KXC5X61LG3K905RWWO0SPZGG,bird,1253.5700000007637,familiar,far,sparrow.jpg,squirrel.jpg,survey-text,36,179763
pilot2,A3THO9TNFICLD1,3NS0A6KXC5X61LG3K905RWWO0SPZGG,table,1949.2500000014843,familiar,far,diningtable.jpg,wardrobe.jpg,survey-text,37,182214
pilot2,A3THO9TNFICLD1,3NS0A6KXC5X61LG3K905RWWO0SPZGG,,1486.2500000017462,,,,,html-button-response,38,184202
pilot2,A3THO9TNFICLD1,3NS0A6KXC5X61LG3K905RWWO0SPZGG,person sitting,5423.234999998385,tangram,close,tangram-164.jpg,tangram-183.jpg,survey-text,39,190128
pilot2,A3THO9TNFICLD1,3NS0A6KXC5X61LG3K905RWWO0SPZGG,person walking,2155.655000002298,tangram,close,B1.jpg,P1.jpg,survey-text,40,192787
pilot2,A3THO9TNFICLD1,3NS0A6KXC5X61LG3K905RWWO0SPZGG,person running,2271.935000000667,tangram,close,tangram-67.jpg,tangram-32.jpg,survey-text,41,195562
pilot2,A3THO9TNFICLD1,3NS0A6KXC5X61LG3K905RWWO0SPZGG,person jogging,6007.835000000341,tangram,close,tangram-90.jpg,tangram-81.jpg,survey-text,42,202072
pilot2,A3THO9TNFICLD1,3NS0A6KXC5X61LG3K905RWWO0SPZGG,person kicking,2250.2849999982573,tangram,close,tangram-48.jpg,tangram-187.jpg,survey-text,43,204825
pilot2,A3THO9TNFICLD1,3NS0A6KXC5X61LG3K905RWWO0SPZGG,holding a box,5085.180000001856,tangram,close,H1.jpg,I1.jpg,survey-text,44,210413
pilot2,A3THO9TNFICLD1,3NS0A6KXC5X61LG3K905RWWO0SPZGG,throwing something,3104.1599999989558,tangram,close,A2.jpg,tangram-99.jpg,survey-text,45,214019
pilot2,A3THO9TNFICLD1,3NS0A6KXC5X61LG3K905RWWO0SPZGG,taller person,4137.139999998908,tangram,close,tangram-55.jpg,N1.jpg,survey-text,46,218659
pilot2,A3THO9TNFICLD1,3NS0A6KXC5X61LG3K905RWWO0SPZGG,,3205.419999998412,,,,,html-button-response,47,222366
pilot2,A3THO9TNFICLD1,3NS0A6KXC5X61LG3K905RWWO0SPZGG,long table,3280.879999998433,familiar,close,diningtable.jpg,picnictable.jpg,survey-text,48,226149
pilot2,A3THO9TNFICLD1,3NS0A6KXC5X61LG3K905RWWO0SPZGG,blue car,1762.670000000071,familiar,close,sedan.jpg,sportscar.jpg,survey-text,49,228417
pilot2,A3THO9TNFICLD1,3NS0A6KXC5X61LG3K905RWWO0SPZGG,small bird,2742.675000001327,familiar,close,sparrow.jpg,eagle.jpg,survey-text,50,231663
pilot2,A3THO9TNFICLD1,3NS0A6KXC5X61LG3K905RWWO0SPZGG,brown bear,4080.050000000483,familiar,close,grizzlybear.jpg,polarbear.jpg,survey-text,51,236246
pilot2,A3THO9TNFICLD1,3NS0A6KXC5X61LG3K905RWWO0SPZGG,blue plain shirt,3189.2249999982596,familiar,close,poloshirt.jpg,hawaiishirt.jpg,survey-text,52,239937
pilot2,A3THO9TNFICLD1,3NS0A6KXC5X61LG3K905RWWO0SPZGG,big dog,3060.5649999997695,familiar,close,germanshepherd.jpg,pug.jpg,survey-text,53,243501
pilot2,A3THO9TNFICLD1,3NS0A6KXC5X61LG3K905RWWO0SPZGG,chocolate ,3599.09499999776,familiar,close,mnms.jpg,gummybears.jpg,survey-text,54,247603
pilot2,A3THO9TNFICLD1,3NS0A6KXC5X61LG3K905RWWO0SPZGG,gold fish,2040.5900000005204,familiar,close,goldfish.jpg,swordfish.jpg,survey-text,55,250146
pilot2,A1U8RH67FLZW87,37ZHEEHM6XBMNZY96Z12HIEGMUS739,,15557.46999999974,,,,,external-html,0,15653
pilot2,A1U8RH67FLZW87,37ZHEEHM6XBMNZY96Z12HIEGMUS739,,15993.510000000242,,,,,html-button-response,1,31652
pilot2,A1U8RH67FLZW87,37ZHEEHM6XBMNZY96Z12HIEGMUS739,,6933.644999997341,,,,,html-button-response,2,39589
pilot2,A1U8RH67FLZW87,37ZHEEHM6XBMNZY96Z12HIEGMUS739,walking,7366.49000000034,tangram,far,A2.jpg,C1.jpg,survey-text,3,47468
pilot2,A1U8RH67FLZW87,37ZHEEHM6XBMNZY96Z12HIEGMUS739,running,5829.799999999523,tangram,far,tangram-67.jpg,G1.jpg,survey-text,4,53809
pilot2,A1U8RH67FLZW87,37ZHEEHM6XBMNZY96Z12HIEGMUS739,dancing,5075.039999996079,tangram,far,tangram-90.jpg,tangram-120.jpg,survey-text,5,59396
pilot2,A1U8RH67FLZW87,37ZHEEHM6XBMNZY96Z12HIEGMUS739,legs up,12646.554999999353,tangram,far,tangram-164.jpg,tangram-64.jpg,survey-text,6,72554
pilot2,A1U8RH67FLZW87,37ZHEEHM6XBMNZY96Z12HIEGMUS739,head down,7230.804999999236,tangram,far,B1.jpg,tangram-4.jpg,survey-text,7,80295
pilot2,A1U8RH67FLZW87,37ZHEEHM6XBMNZY96Z12HIEGMUS739,leg out,9774.649999999383,tangram,far,tangram-48.jpg,D1.jpg,survey-text,8,90576
pilot2,A1U8RH67FLZW87,37ZHEEHM6XBMNZY96Z12HIEGMUS739,praying,7815.7199999986915,tangram,far,H1.jpg,tangram-8.jpg,survey-text,9,98904
pilot2,A1U8RH67FLZW87,37ZHEEHM6XBMNZY96Z12HIEGMUS739,sprinting,7763.449999998556,tangram,far,tangram-55.jpg,tangram-143.jpg,survey-text,10,107179
pilot2,A1U8RH67FLZW87,37ZHEEHM6XBMNZY96Z12HIEGMUS739,,2628.0150000020512,,,,,html-button-response,11,110313
pilot2,A1U8RH67FLZW87,37ZHEEHM6XBMNZY96Z12HIEGMUS739,walking down,11093.365000000631,tangram,isolated,B1.jpg,P1.jpg,survey-text,12,121916
pilot2,A1U8RH67FLZW87,37ZHEEHM6XBMNZY96Z12HIEGMUS739,running,6158.380000000761,tangram,isolated,A2.jpg,tangram-99.jpg,survey-text,13,128585
pilot2,A1ZDR2UN7M92LI,3L4D84MIL0HU126AMTF1O2KZWUAHJX,,29453.31500004977,,,,,external-html,0,29529
pilot2,A1ZDR2UN7M92LI,3L4D84MIL0HU126AMTF1O2KZWUAHJX,,2532.039999961853,,,,,html-button-response,1,32068
pilot2,A1U8RH67FLZW87,37ZHEEHM6XBMNZY96Z12HIEGMUS739,running fast,9908.909999998286,tangram,isolated,tangram-67.jpg,tangram-32.jpg,survey-text,14,139003
pilot2,A1ZDR2UN7M92LI,3L4D84MIL0HU126AMTF1O2KZWUAHJX,,2849.9649995937943,,,,,html-button-response,2,35923
pilot2,A1U8RH67FLZW87,37ZHEEHM6XBMNZY96Z12HIEGMUS739,dancing,3998.5599999999977,tangram,isolated,tangram-90.jpg,tangram-81.jpg,survey-text,15,143511
pilot2,A1ZDR2UN7M92LI,3L4D84MIL0HU126AMTF1O2KZWUAHJX,dog,5184.200000017881,familiar,far,germanshepherd.jpg,cow.jpg,survey-text,3,41619
pilot2,A1U8RH67FLZW87,37ZHEEHM6XBMNZY96Z12HIEGMUS739,legs up,3323.2050000005984,tangram,isolated,tangram-164.jpg,tangram-183.jpg,survey-text,16,147339
pilot2,A1ZDR2UN7M92LI,3L4D84MIL0HU126AMTF1O2KZWUAHJX,bird,2349.039999768138,familiar,far,sparrow.jpg,squirrel.jpg,survey-text,4,44474
pilot2,A1U8RH67FLZW87,37ZHEEHM6XBMNZY96Z12HIEGMUS739,sprinting,5614.779999996244,tangram,isolated,tangram-55.jpg,N1.jpg,survey-text,17,153465
pilot2,A1ZDR2UN7M92LI,3L4D84MIL0HU126AMTF1O2KZWUAHJX,shirt,4290.715000592172,familiar,far,poloshirt.jpg,dress.jpg,survey-text,5,49275
pilot2,A1ZDR2UN7M92LI,3L4D84MIL0HU126AMTF1O2KZWUAHJX,table,1968.690000474453,familiar,far,diningtable.jpg,wardrobe.jpg,survey-text,6,51755
pilot2,A1U8RH67FLZW87,37ZHEEHM6XBMNZY96Z12HIEGMUS739,praying,5186.164999999164,tangram,isolated,H1.jpg,I1.jpg,survey-text,18,159162
pilot2,A1ZDR2UN7M92LI,3L4D84MIL0HU126AMTF1O2KZWUAHJX,car,1469.1650001332164,familiar,far,sedan.jpg,firetruck.jpg,survey-text,7,53731
pilot2,A1ZDR2UN7M92LI,3L4D84MIL0HU126AMTF1O2KZWUAHJX,candy,2521.285000257194,familiar,far,mnms.jpg,pretzels.jpg,survey-text,8,56762
pilot2,A1U8RH67FLZW87,37ZHEEHM6XBMNZY96Z12HIEGMUS739,leg out,5794.119999998657,tangram,isolated,tangram-48.jpg,tangram-187.jpg,survey-text,19,165466
pilot2,A1ZDR2UN7M92LI,3L4D84MIL0HU126AMTF1O2KZWUAHJX,bear,3102.160000242293,familiar,far,grizzlybear.jpg,lion.jpg,survey-text,9,60370
pilot2,A1U8RH67FLZW87,37ZHEEHM6XBMNZY96Z12HIEGMUS739,,1753.420000000915,,,,,html-button-response,20,167723
pilot2,A1ZDR2UN7M92LI,3L4D84MIL0HU126AMTF1O2KZWUAHJX,fish,1450.9549997746944,familiar,far,goldfish.jpg,iguana.jpg,survey-text,10,62331
pilot2,A1ZDR2UN7M92LI,3L4D84MIL0HU126AMTF1O2KZWUAHJX,,1396.0600001737475,,,,,html-button-response,11,64235
pilot2,A1ZDR2UN7M92LI,3L4D84MIL0HU126AMTF1O2KZWUAHJX,sit ,3141.3400005549192,tangram,isolated,tangram-164.jpg,tangram-183.jpg,survey-text,12,67883
pilot2,A1ZDR2UN7M92LI,3L4D84MIL0HU126AMTF1O2KZWUAHJX,run,1469.3149998784065,tangram,isolated,tangram-55.jpg,N1.jpg,survey-text,13,69859
pilot2,A1U8RH67FLZW87,37ZHEEHM6XBMNZY96Z12HIEGMUS739,blue car,7305.840000000899,familiar,isolated,sedan.jpg,sportscar.jpg,survey-text,21,175535
pilot2,A1ZDR2UN7M92LI,3L4D84MIL0HU126AMTF1O2KZWUAHJX,sprint,2318.839999847114,tangram,isolated,tangram-67.jpg,tangram-32.jpg,survey-text,14,72683
pilot2,A1U8RH67FLZW87,37ZHEEHM6XBMNZY96Z12HIEGMUS739,goldfish,4534.554999998363,familiar,isolated,goldfish.jpg,swordfish.jpg,survey-text,22,180576
pilot2,A1ZDR2UN7M92LI,3L4D84MIL0HU126AMTF1O2KZWUAHJX,prance,2758.63999966532,tangram,isolated,tangram-90.jpg,tangram-81.jpg,survey-text,15,75947
pilot2,A1ZDR2UN7M92LI,3L4D84MIL0HU126AMTF1O2KZWUAHJX,kick,1609.774999320507,tangram,isolated,tangram-48.jpg,tangram-187.jpg,survey-text,16,78067
pilot2,A1ZDR2UN7M92LI,3L4D84MIL0HU126AMTF1O2KZWUAHJX,throw,2002.755000256002,tangram,isolated,A2.jpg,tangram-99.jpg,survey-text,17,80579
pilot2,A1ZDR2UN7M92LI,3L4D84MIL0HU126AMTF1O2KZWUAHJX,carry,1902.8300000354648,tangram,isolated,H1.jpg,I1.jpg,survey-text,18,82995
pilot2,A1ZDR2UN7M92LI,3L4D84MIL0HU126AMTF1O2KZWUAHJX,walk,3782.920000143349,tangram,isolated,B1.jpg,P1.jpg,survey-text,19,87283
pilot2,A1U8RH67FLZW87,37ZHEEHM6XBMNZY96Z12HIEGMUS739,m&ms,12757.644999997865,familiar,isolated,mnms.jpg,gummybears.jpg,survey-text,23,193843
pilot2,A1ZDR2UN7M92LI,3L4D84MIL0HU126AMTF1O2KZWUAHJX,,1888.285000808537,,,,,html-button-response,20,89675
pilot2,A1ZDR2UN7M92LI,3L4D84MIL0HU126AMTF1O2KZWUAHJX,run,3935.3350000455976,tangram,close,tangram-55.jpg,N1.jpg,survey-text,21,94116
pilot2,A1U8RH67FLZW87,37ZHEEHM6XBMNZY96Z12HIEGMUS739,blue shirt,5479.155000000901,familiar,isolated,poloshirt.jpg,hawaiishirt.jpg,survey-text,24,199827
pilot2,A1ZDR2UN7M92LI,3L4D84MIL0HU126AMTF1O2KZWUAHJX,punt,2713.7850001454353,tangram,close,tangram-48.jpg,tangram-187.jpg,survey-text,22,97340
pilot2,A1U8RH67FLZW87,37ZHEEHM6XBMNZY96Z12HIEGMUS739,table,3633.00000000163,familiar,isolated,diningtable.jpg,picnictable.jpg,survey-text,25,203968
pilot2,A1ZDR2UN7M92LI,3L4D84MIL0HU126AMTF1O2KZWUAHJX,sprint,2390.05000051111,tangram,close,tangram-67.jpg,tangram-32.jpg,survey-text,23,100236
pilot2,A1ZDR2UN7M92LI,3L4D84MIL0HU126AMTF1O2KZWUAHJX,hold,3876.875000074506,tangram,close,H1.jpg,I1.jpg,survey-text,24,104620
pilot2,A1U8RH67FLZW87,37ZHEEHM6XBMNZY96Z12HIEGMUS739,small bird,7077.51499999722,familiar,isolated,sparrow.jpg,eagle.jpg,survey-text,26,211551
pilot2,A1ZDR2UN7M92LI,3L4D84MIL0HU126AMTF1O2KZWUAHJX,prance,2381.889999844134,tangram,close,tangram-90.jpg,tangram-81.jpg,survey-text,25,107508
pilot2,A1ZDR2UN7M92LI,3L4D84MIL0HU126AMTF1O2KZWUAHJX,throw,2126.024999655783,tangram,close,A2.jpg,tangram-99.jpg,survey-text,26,110140
pilot2,A1U8RH67FLZW87,37ZHEEHM6XBMNZY96Z12HIEGMUS739,bear,3752.1150000029593,familiar,isolated,grizzlybear.jpg,polarbear.jpg,survey-text,27,215825
pilot2,A1ZDR2UN7M92LI,3L4D84MIL0HU126AMTF1O2KZWUAHJX,stoop,7086.664999835193,tangram,close,tangram-164.jpg,tangram-183.jpg,survey-text,27,117732
pilot2,A1ZDR2UN7M92LI,3L4D84MIL0HU126AMTF1O2KZWUAHJX,sunter,2758.1549994647503,tangram,close,B1.jpg,P1.jpg,survey-text,28,120996
pilot2,A1ZDR2UN7M92LI,3L4D84MIL0HU126AMTF1O2KZWUAHJX,,1013.6449998244643,,,,,html-button-response,29,122516
pilot2,A1ZDR2UN7M92LI,3L4D84MIL0HU126AMTF1O2KZWUAHJX,table,1604.3050000444055,familiar,isolated,diningtable.jpg,picnictable.jpg,survey-text,30,124628
pilot2,A1U8RH67FLZW87,37ZHEEHM6XBMNZY96Z12HIEGMUS739,German Shepard,14709.670000003825,familiar,isolated,germanshepherd.jpg,pug.jpg,survey-text,28,231041
pilot2,A1ZDR2UN7M92LI,3L4D84MIL0HU126AMTF1O2KZWUAHJX,bird,1476.1849995702505,familiar,isolated,sparrow.jpg,eagle.jpg,survey-text,31,126612
pilot2,A1ZDR2UN7M92LI,3L4D84MIL0HU126AMTF1O2KZWUAHJX,fish,1220.350000075996,familiar,isolated,goldfish.jpg,swordfish.jpg,survey-text,32,128340
pilot2,A1ZDR2UN7M92LI,3L4D84MIL0HU126AMTF1O2KZWUAHJX,bear,1237.449999898672,familiar,isolated,grizzlybear.jpg,polarbear.jpg,survey-text,33,130084
pilot2,A1U8RH67FLZW87,37ZHEEHM6XBMNZY96Z12HIEGMUS739,,4339.590000003227,,,,,html-button-response,29,235885
pilot2,A1ZDR2UN7M92LI,3L4D84MIL0HU126AMTF1O2KZWUAHJX,shirt,1546.7700008302927,familiar,isolated,poloshirt.jpg,hawaiishirt.jpg,survey-text,34,132140
pilot2,A1ZDR2UN7M92LI,3L4D84MIL0HU126AMTF1O2KZWUAHJX,candy,1608.3450000733137,familiar,isolated,mnms.jpg,gummybears.jpg,survey-text,35,134252
pilot2,A1ZDR2UN7M92LI,3L4D84MIL0HU126AMTF1O2KZWUAHJX,car,1431.7399999126792,familiar,isolated,sedan.jpg,sportscar.jpg,survey-text,36,136189
pilot2,A1ZDR2UN7M92LI,3L4D84MIL0HU126AMTF1O2KZWUAHJX,dog,1270.8400003612041,familiar,isolated,germanshepherd.jpg,pug.jpg,survey-text,37,137965
pilot2,A1ZDR2UN7M92LI,3L4D84MIL0HU126AMTF1O2KZWUAHJX,,1150.0700004398823,,,,,html-button-response,38,139620
pilot2,A1ZDR2UN7M92LI,3L4D84MIL0HU126AMTF1O2KZWUAHJX,sprint,1658.2100000232458,tangram,far,tangram-55.jpg,tangram-143.jpg,survey-text,39,141788
pilot2,A1ZDR2UN7M92LI,3L4D84MIL0HU126AMTF1O2KZWUAHJX,relax,2221.830000169575,tangram,far,tangram-164.jpg,tangram-64.jpg,survey-text,40,144517
pilot2,A1U8RH67FLZW87,37ZHEEHM6XBMNZY96Z12HIEGMUS739,running faster,15267.859999999928,tangram,close,tangram-55.jpg,N1.jpg,survey-text,30,251663
pilot2,A1ZDR2UN7M92LI,3L4D84MIL0HU126AMTF1O2KZWUAHJX,walk,2155.9549998492002,tangram,far,B1.jpg,tangram-4.jpg,survey-text,41,147181
pilot2,A1ZDR2UN7M92LI,3L4D84MIL0HU126AMTF1O2KZWUAHJX,hold,1441.1700004711747,tangram,far,H1.jpg,tangram-8.jpg,survey-text,42,149133
pilot2,A1ZDR2UN7M92LI,3L4D84MIL0HU126AMTF1O2KZWUAHJX,throw  ,2277.8650000691414,tangram,far,A2.jpg,C1.jpg,survey-text,43,151917
pilot2,A1ZDR2UN7M92LI,3L4D84MIL0HU126AMTF1O2KZWUAHJX,sprint,1578.0699998140335,tangram,far,tangram-67.jpg,G1.jpg,survey-text,44,154005
pilot2,A1ZDR2UN7M92LI,3L4D84MIL0HU126AMTF1O2KZWUAHJX,punt,1489.3600000068545,tangram,far,tangram-48.jpg,D1.jpg,survey-text,45,156005
pilot2,A1U8RH67FLZW87,37ZHEEHM6XBMNZY96Z12HIEGMUS739,larger triangle,10930.719999996654,tangram,close,tangram-90.jpg,tangram-81.jpg,survey-text,31,263099
pilot2,A1ZDR2UN7M92LI,3L4D84MIL0HU126AMTF1O2KZWUAHJX,prance,2005.949999205768,tangram,far,tangram-90.jpg,tangram-120.jpg,survey-text,46,158517
pilot2,A1ZDR2UN7M92LI,3L4D84MIL0HU126AMTF1O2KZWUAHJX,,1228.9800001308322,,,,,html-button-response,47,160253
pilot2,A1ZDR2UN7M92LI,3L4D84MIL0HU126AMTF1O2KZWUAHJX,i,2427.9100000858307,familiar,close,diningtable.jpg,picnictable.jpg,survey-text,48,163189
pilot2,A1ZDR2UN7M92LI,3L4D84MIL0HU126AMTF1O2KZWUAHJX,think,1460.164999589324,familiar,close,poloshirt.jpg,hawaiishirt.jpg,survey-text,49,165158
pilot2,A1ZDR2UN7M92LI,3L4D84MIL0HU126AMTF1O2KZWUAHJX,this,1043.0950000882149,familiar,close,sparrow.jpg,eagle.jpg,survey-text,50,166709
pilot2,A1ZDR2UN7M92LI,3L4D84MIL0HU126AMTF1O2KZWUAHJX,is,726.0349998250604,familiar,close,sedan.jpg,sportscar.jpg,survey-text,51,167941
pilot2,A1ZDR2UN7M92LI,3L4D84MIL0HU126AMTF1O2KZWUAHJX,very,793.9299996942282,familiar,close,grizzlybear.jpg,polarbear.jpg,survey-text,52,169246
pilot2,A1ZDR2UN7M92LI,3L4D84MIL0HU126AMTF1O2KZWUAHJX,underpaid,1514.2399994656444,familiar,close,goldfish.jpg,swordfish.jpg,survey-text,53,171270
pilot2,A1ZDR2UN7M92LI,3L4D84MIL0HU126AMTF1O2KZWUAHJX,i'm,1473.9499995484948,familiar,close,germanshepherd.jpg,pug.jpg,survey-text,54,173253
pilot2,A1U8RH67FLZW87,37ZHEEHM6XBMNZY96Z12HIEGMUS739,walking fast,16736.259999997856,tangram,close,A2.jpg,tangram-99.jpg,survey-text,32,280347
pilot2,A1ZDR2UN7M92LI,3L4D84MIL0HU126AMTF1O2KZWUAHJX,at ,1092.1600004658103,familiar,close,mnms.jpg,gummybears.jpg,survey-text,55,174854
pilot2,A1U8RH67FLZW87,37ZHEEHM6XBMNZY96Z12HIEGMUS739,straight up,10532.780000001367,tangram,close,H1.jpg,I1.jpg,survey-text,33,291385
pilot2,A1U8RH67FLZW87,37ZHEEHM6XBMNZY96Z12HIEGMUS739,running faster,9197.549999997136,tangram,close,tangram-67.jpg,tangram-32.jpg,survey-text,34,301094
pilot2,A1U8RH67FLZW87,37ZHEEHM6XBMNZY96Z12HIEGMUS739,head down,5257.189999996626,tangram,close,B1.jpg,P1.jpg,survey-text,35,306859
pilot2,A1U8RH67FLZW87,37ZHEEHM6XBMNZY96Z12HIEGMUS739,sitting upright,9904.399999999441,tangram,close,tangram-164.jpg,tangram-183.jpg,survey-text,36,317277
pilot2,A1U8RH67FLZW87,37ZHEEHM6XBMNZY96Z12HIEGMUS739,leg out,19336.875000000873,tangram,close,tangram-48.jpg,tangram-187.jpg,survey-text,37,337129
pilot2,A1U8RH67FLZW87,37ZHEEHM6XBMNZY96Z12HIEGMUS739,,2008.7100000018836,,,,,html-button-response,38,339643
pilot2,A1U8RH67FLZW87,37ZHEEHM6XBMNZY96Z12HIEGMUS739,goldfish,10428.610000002664,familiar,close,goldfish.jpg,swordfish.jpg,survey-text,39,350576
pilot2,A1U8RH67FLZW87,37ZHEEHM6XBMNZY96Z12HIEGMUS739,brown,7931.255000003148,familiar,close,grizzlybear.jpg,polarbear.jpg,survey-text,40,359017
pilot2,A1U8RH67FLZW87,37ZHEEHM6XBMNZY96Z12HIEGMUS739,plain,6413.745000005292,familiar,close,poloshirt.jpg,hawaiishirt.jpg,survey-text,41,365979
pilot2,A1U8RH67FLZW87,37ZHEEHM6XBMNZY96Z12HIEGMUS739,m&ms,7241.414999996778,familiar,close,mnms.jpg,gummybears.jpg,survey-text,42,373731
pilot2,A1U8RH67FLZW87,37ZHEEHM6XBMNZY96Z12HIEGMUS739,small,5791.389999998501,familiar,close,sparrow.jpg,eagle.jpg,survey-text,43,380039
pilot2,A1U8RH67FLZW87,37ZHEEHM6XBMNZY96Z12HIEGMUS739,blue,11203.205000005255,familiar,close,sedan.jpg,sportscar.jpg,survey-text,44,391755
pilot2,A1U8RH67FLZW87,37ZHEEHM6XBMNZY96Z12HIEGMUS739,indoor table,16071.149999996123,familiar,close,diningtable.jpg,picnictable.jpg,survey-text,45,408332
pilot2,A1U8RH67FLZW87,37ZHEEHM6XBMNZY96Z12HIEGMUS739,German Shepard,6480.039999994915,familiar,close,germanshepherd.jpg,pug.jpg,survey-text,46,415332
pilot2,A1U8RH67FLZW87,37ZHEEHM6XBMNZY96Z12HIEGMUS739,,1926.549999996496,,,,,html-button-response,47,417761
pilot2,A1U8RH67FLZW87,37ZHEEHM6XBMNZY96Z12HIEGMUS739,m&ms,5167.0650000014575,familiar,far,mnms.jpg,pretzels.jpg,survey-text,48,423441
pilot2,A1U8RH67FLZW87,37ZHEEHM6XBMNZY96Z12HIEGMUS739,small bird,4371.409999999742,familiar,far,sparrow.jpg,squirrel.jpg,survey-text,49,428323
pilot2,A1U8RH67FLZW87,37ZHEEHM6XBMNZY96Z12HIEGMUS739,bear,3735.7499999998254,familiar,far,grizzlybear.jpg,lion.jpg,survey-text,50,432576
pilot2,A1U8RH67FLZW87,37ZHEEHM6XBMNZY96Z12HIEGMUS739,car,2570.849999996426,familiar,far,sedan.jpg,firetruck.jpg,survey-text,51,435659
pilot2,A1U8RH67FLZW87,37ZHEEHM6XBMNZY96Z12HIEGMUS739,dog,5582.780000004277,familiar,far,germanshepherd.jpg,cow.jpg,survey-text,52,441753
pilot2,A1U8RH67FLZW87,37ZHEEHM6XBMNZY96Z12HIEGMUS739,goldfish,4164.9299999990035,familiar,far,goldfish.jpg,iguana.jpg,survey-text,53,446425
pilot2,A1U8RH67FLZW87,37ZHEEHM6XBMNZY96Z12HIEGMUS739,shirt,3914.9649999963003,familiar,far,poloshirt.jpg,dress.jpg,survey-text,54,450847
pilot2,A1U8RH67FLZW87,37ZHEEHM6XBMNZY96Z12HIEGMUS739,table,3740.060000003723,familiar,far,diningtable.jpg,wardrobe.jpg,survey-text,55,455097
pilot2,A58208A71VGW,35L9RVQFCP73FIH4YSJFV4TADA8UH6,,467080.5649999529,,,,,external-html,0,467159
pilot2,A58208A71VGW,35L9RVQFCP73FIH4YSJFV4TADA8UH6,,4721.119999885559,,,,,html-button-response,1,471893
pilot2,A58208A71VGW,35L9RVQFCP73FIH4YSJFV4TADA8UH6,,1683.164999820292,,,,,html-button-response,2,474580
pilot2,A58208A71VGW,35L9RVQFCP73FIH4YSJFV4TADA8UH6,fish,6000.560000538826,familiar,close,goldfish.jpg,swordfish.jpg,survey-text,3,481093
pilot2,A58208A71VGW,35L9RVQFCP73FIH4YSJFV4TADA8UH6,dog,6290.265000425279,familiar,close,germanshepherd.jpg,pug.jpg,survey-text,4,487897
pilot2,A58208A71VGW,35L9RVQFCP73FIH4YSJFV4TADA8UH6,bird,5251.790000125766,familiar,close,sparrow.jpg,eagle.jpg,survey-text,5,493664
pilot2,A58208A71VGW,35L9RVQFCP73FIH4YSJFV4TADA8UH6,shirt,5655.290000140667,familiar,close,poloshirt.jpg,hawaiishirt.jpg,survey-text,6,499832
pilot2,A58208A71VGW,35L9RVQFCP73FIH4YSJFV4TADA8UH6,table,5313.28499969095,familiar,close,diningtable.jpg,picnictable.jpg,survey-text,7,505670
pilot2,A58208A71VGW,35L9RVQFCP73FIH4YSJFV4TADA8UH6,car,5679.189999587834,familiar,close,sedan.jpg,sportscar.jpg,survey-text,8,511866
pilot2,A58208A71VGW,35L9RVQFCP73FIH4YSJFV4TADA8UH6,gems,7633.230000734329,familiar,close,mnms.jpg,gummybears.jpg,survey-text,9,520012
pilot2,A1QRGVE005067Q,3X31TUMD7YBPSH9WNPOTCUHKJUDL1Y,,8747.444999986328,,,,,external-html,0,8816
pilot2,A1QRGVE005067Q,3X31TUMD7YBPSH9WNPOTCUHKJUDL1Y,,5145.34500008449,,,,,html-button-response,1,13965
pilot2,A1QRGVE005067Q,3X31TUMD7YBPSH9WNPOTCUHKJUDL1Y,,1648.700000019744,,,,,html-button-response,2,16616
pilot2,A1QRGVE005067Q,3X31TUMD7YBPSH9WNPOTCUHKJUDL1Y,honda sedan,8017.315000062808,familiar,isolated,sedan.jpg,sportscar.jpg,survey-text,3,25147
pilot2,A1QRGVE005067Q,3X31TUMD7YBPSH9WNPOTCUHKJUDL1Y,dog,5077.294999966398,familiar,isolated,germanshepherd.jpg,pug.jpg,survey-text,4,30743
pilot2,A1QRGVE005067Q,3X31TUMD7YBPSH9WNPOTCUHKJUDL1Y,tshirt,3466.815000050701,familiar,isolated,poloshirt.jpg,hawaiishirt.jpg,survey-text,5,34719
pilot2,A1QRGVE005067Q,3X31TUMD7YBPSH9WNPOTCUHKJUDL1Y,table,3080.874999985099,familiar,isolated,diningtable.jpg,picnictable.jpg,survey-text,6,38308
pilot2,A1QRGVE005067Q,3X31TUMD7YBPSH9WNPOTCUHKJUDL1Y,bird,2483.6600000271574,familiar,isolated,sparrow.jpg,eagle.jpg,survey-text,7,41297
pilot2,A1QRGVE005067Q,3X31TUMD7YBPSH9WNPOTCUHKJUDL1Y,candy,2221.7149999924004,familiar,isolated,mnms.jpg,gummybears.jpg,survey-text,8,44027
pilot2,A1QRGVE005067Q,3X31TUMD7YBPSH9WNPOTCUHKJUDL1Y,bear,1837.4400000320747,familiar,isolated,grizzlybear.jpg,polarbear.jpg,survey-text,9,46371
pilot2,A1QRGVE005067Q,3X31TUMD7YBPSH9WNPOTCUHKJUDL1Y,goldfish,2565.7950000604615,familiar,isolated,goldfish.jpg,swordfish.jpg,survey-text,10,49442
pilot2,A1QRGVE005067Q,3X31TUMD7YBPSH9WNPOTCUHKJUDL1Y,,7103.234999929555,,,,,html-button-response,11,57060
pilot2,A1QRGVE005067Q,3X31TUMD7YBPSH9WNPOTCUHKJUDL1Y,sedan,3232.229999965057,familiar,far,sedan.jpg,firetruck.jpg,survey-text,12,60795
pilot2,A1QRGVE005067Q,3X31TUMD7YBPSH9WNPOTCUHKJUDL1Y,bear,1661.019999999553,familiar,far,grizzlybear.jpg,lion.jpg,survey-text,13,62963
pilot2,A1QRGVE005067Q,3X31TUMD7YBPSH9WNPOTCUHKJUDL1Y,bird,2362.3949999455363,familiar,far,sparrow.jpg,squirrel.jpg,survey-text,14,65832
pilot2,A1QRGVE005067Q,3X31TUMD7YBPSH9WNPOTCUHKJUDL1Y,goldfish,2433.8950000237674,familiar,far,goldfish.jpg,iguana.jpg,survey-text,15,68778
pilot2,A1QRGVE005067Q,3X31TUMD7YBPSH9WNPOTCUHKJUDL1Y,dog,2467.0250000199303,familiar,far,germanshepherd.jpg,cow.jpg,survey-text,16,71755
pilot2,A1QRGVE005067Q,3X31TUMD7YBPSH9WNPOTCUHKJUDL1Y,tshirt,4175.225000013597,familiar,far,poloshirt.jpg,dress.jpg,survey-text,17,76441
pilot2,A1QRGVE005067Q,3X31TUMD7YBPSH9WNPOTCUHKJUDL1Y,table,2937.2699999948964,familiar,far,diningtable.jpg,wardrobe.jpg,survey-text,18,79890
pilot2,A1QRGVE005067Q,3X31TUMD7YBPSH9WNPOTCUHKJUDL1Y,candy,2418.999999994412,familiar,far,mnms.jpg,pretzels.jpg,survey-text,19,82816
pilot2,A1QRGVE005067Q,3X31TUMD7YBPSH9WNPOTCUHKJUDL1Y,,2248.535000020638,,,,,html-button-response,20,85570
pilot2,A1QRGVE005067Q,3X31TUMD7YBPSH9WNPOTCUHKJUDL1Y,leap,6901.2900000670925,tangram,close,A2.jpg,tangram-99.jpg,survey-text,21,92979
pilot2,A1QRGVE005067Q,3X31TUMD7YBPSH9WNPOTCUHKJUDL1Y,step,4351.554999942891,tangram,close,tangram-48.jpg,tangram-187.jpg,survey-text,22,97839
pilot2,A1QRGVE005067Q,3X31TUMD7YBPSH9WNPOTCUHKJUDL1Y,fall,2747.369999997318,tangram,close,B1.jpg,P1.jpg,survey-text,23,101095
pilot2,A1QRGVE005067Q,3X31TUMD7YBPSH9WNPOTCUHKJUDL1Y,gallup,4696.63500005845,tangram,close,tangram-55.jpg,N1.jpg,survey-text,24,106296
pilot2,A1QRGVE005067Q,3X31TUMD7YBPSH9WNPOTCUHKJUDL1Y,falling,4715.930000063963,tangram,close,tangram-164.jpg,tangram-183.jpg,survey-text,25,111525
pilot2,A1QRGVE005067Q,3X31TUMD7YBPSH9WNPOTCUHKJUDL1Y,dancing,4770.15500003472,tangram,close,tangram-90.jpg,tangram-81.jpg,survey-text,26,116800
pilot2,A1QRGVE005067Q,3X31TUMD7YBPSH9WNPOTCUHKJUDL1Y,hold,7435.364999924786,tangram,close,H1.jpg,I1.jpg,survey-text,27,124754
pilot2,A1QRGVE005067Q,3X31TUMD7YBPSH9WNPOTCUHKJUDL1Y,leap,3090.5499999644235,tangram,close,tangram-67.jpg,tangram-32.jpg,survey-text,28,128362
pilot2,A1QRGVE005067Q,3X31TUMD7YBPSH9WNPOTCUHKJUDL1Y,,2720.6249999580905,,,,,html-button-response,29,131593
pilot2,A1QRGVE005067Q,3X31TUMD7YBPSH9WNPOTCUHKJUDL1Y,step,3187.5050000380725,tangram,isolated,A2.jpg,tangram-99.jpg,survey-text,30,135288
pilot2,A1QRGVE005067Q,3X31TUMD7YBPSH9WNPOTCUHKJUDL1Y,hug,4363.840000005439,tangram,isolated,tangram-90.jpg,tangram-81.jpg,survey-text,31,140162
pilot2,A1QRGVE005067Q,3X31TUMD7YBPSH9WNPOTCUHKJUDL1Y,leap,2684.3849999131635,tangram,isolated,tangram-67.jpg,tangram-32.jpg,survey-text,32,143360
pilot2,A1QRGVE005067Q,3X31TUMD7YBPSH9WNPOTCUHKJUDL1Y,step,2085.70499997586,tangram,isolated,B1.jpg,P1.jpg,survey-text,33,145963
pilot2,A1QRGVE005067Q,3X31TUMD7YBPSH9WNPOTCUHKJUDL1Y,hold,2724.7849999694154,tangram,isolated,H1.jpg,I1.jpg,survey-text,34,149198
pilot2,A1QRGVE005067Q,3X31TUMD7YBPSH9WNPOTCUHKJUDL1Y,falling,2537.7999999327585,tangram,isolated,tangram-164.jpg,tangram-183.jpg,survey-text,35,152242
pilot2,A1QRGVE005067Q,3X31TUMD7YBPSH9WNPOTCUHKJUDL1Y,step,3007.839999976568,tangram,isolated,tangram-48.jpg,tangram-187.jpg,survey-text,36,155754
pilot2,A1QRGVE005067Q,3X31TUMD7YBPSH9WNPOTCUHKJUDL1Y,dash,2129.145000013523,tangram,isolated,tangram-55.jpg,N1.jpg,survey-text,37,158395
pilot2,A1QRGVE005067Q,3X31TUMD7YBPSH9WNPOTCUHKJUDL1Y,,952.6900000637397,,,,,html-button-response,38,159864
pilot2,A1QRGVE005067Q,3X31TUMD7YBPSH9WNPOTCUHKJUDL1Y,hug,2021.2700000265613,tangram,far,tangram-90.jpg,tangram-120.jpg,survey-text,39,162394
pilot2,A1QRGVE005067Q,3X31TUMD7YBPSH9WNPOTCUHKJUDL1Y,hold,2391.1950000328943,tangram,far,H1.jpg,tangram-8.jpg,survey-text,40,165303
pilot2,A1QRGVE005067Q,3X31TUMD7YBPSH9WNPOTCUHKJUDL1Y,leap,2776.9850000040606,tangram,far,tangram-67.jpg,G1.jpg,survey-text,41,168583
pilot2,A1QRGVE005067Q,3X31TUMD7YBPSH9WNPOTCUHKJUDL1Y,step,2482.6149999862537,tangram,far,tangram-48.jpg,D1.jpg,survey-text,42,171578
pilot2,A1QRGVE005067Q,3X31TUMD7YBPSH9WNPOTCUHKJUDL1Y,falling,2315.445000072941,tangram,far,tangram-164.jpg,tangram-64.jpg,survey-text,43,174412
pilot2,A1QRGVE005067Q,3X31TUMD7YBPSH9WNPOTCUHKJUDL1Y,step,3021.2299999548122,tangram,far,B1.jpg,tangram-4.jpg,survey-text,44,177950
pilot2,A1QRGVE005067Q,3X31TUMD7YBPSH9WNPOTCUHKJUDL1Y,skip,5927.789999986999,tangram,far,A2.jpg,C1.jpg,survey-text,45,184393
pilot2,A1QRGVE005067Q,3X31TUMD7YBPSH9WNPOTCUHKJUDL1Y,sprint,3561.085000052117,tangram,far,tangram-55.jpg,tangram-143.jpg,survey-text,46,188459
pilot2,A1QRGVE005067Q,3X31TUMD7YBPSH9WNPOTCUHKJUDL1Y,,1011.2499999813735,,,,,html-button-response,47,189972
pilot2,A1QRGVE005067Q,3X31TUMD7YBPSH9WNPOTCUHKJUDL1Y,chocolate,12423.710000002757,familiar,close,mnms.jpg,gummybears.jpg,survey-text,48,202911
pilot2,A1QRGVE005067Q,3X31TUMD7YBPSH9WNPOTCUHKJUDL1Y,brown bear,6141.509999986738,familiar,close,grizzlybear.jpg,polarbear.jpg,survey-text,49,209556
pilot2,A1QRGVE005067Q,3X31TUMD7YBPSH9WNPOTCUHKJUDL1Y,inside table,6720.3450000379235,familiar,close,diningtable.jpg,picnictable.jpg,survey-text,50,216789
pilot2,A1QRGVE005067Q,3X31TUMD7YBPSH9WNPOTCUHKJUDL1Y,solid tshirt,5152.3700000252575,familiar,close,poloshirt.jpg,hawaiishirt.jpg,survey-text,51,222452
pilot2,A1QRGVE005067Q,3X31TUMD7YBPSH9WNPOTCUHKJUDL1Y,goldfish,2414.524999912828,familiar,close,goldfish.jpg,swordfish.jpg,survey-text,52,225377
pilot2,A1QRGVE005067Q,3X31TUMD7YBPSH9WNPOTCUHKJUDL1Y,large dog,3542.6799999549985,familiar,close,germanshepherd.jpg,pug.jpg,survey-text,53,229438
pilot2,A35IG645Y91H8M,35L9RVQFCP73FIH4YSJFV4TADA8UH6,,12326.675000000023,,,,,external-html,0,12391
pilot2,A1QRGVE005067Q,3X31TUMD7YBPSH9WNPOTCUHKJUDL1Y,honda sedan,3873.585000052117,familiar,close,sedan.jpg,sportscar.jpg,survey-text,54,233819
pilot2,A35IG645Y91H8M,35L9RVQFCP73FIH4YSJFV4TADA8UH6,,1353.2900000000136,,,,,html-button-response,1,13758
pilot2,A35IG645Y91H8M,35L9RVQFCP73FIH4YSJFV4TADA8UH6,,1397.009999999911,,,,,html-button-response,2,16161
pilot2,A1QRGVE005067Q,3X31TUMD7YBPSH9WNPOTCUHKJUDL1Y,small bird,3426.355000003241,familiar,close,sparrow.jpg,eagle.jpg,survey-text,55,237748
pilot2,A3OP24TYKA619W,37XITHEISXYKIIE786A9F29ATJ2RCT,,1.0434854750000002e+06,,,,,external-html,0,1043558
pilot2,A3OP24TYKA619W,37XITHEISXYKIIE786A9F29ATJ2RCT,,6867.934999999823,,,,,html-button-response,1,1050430
pilot2,A3OP24TYKA619W,37XITHEISXYKIIE786A9F29ATJ2RCT,,5576.93499999959,,,,,html-button-response,2,1057010
pilot2,A3OP24TYKA619W,37XITHEISXYKIIE786A9F29ATJ2RCT,goldfish,8423.005000000121,familiar,close,goldfish.jpg,swordfish.jpg,survey-text,3,1065938
pilot2,A3OP24TYKA619W,37XITHEISXYKIIE786A9F29ATJ2RCT,m&ms,8434.550000000512,familiar,close,mnms.jpg,gummybears.jpg,survey-text,4,1074876
pilot2,A3OP24TYKA619W,37XITHEISXYKIIE786A9F29ATJ2RCT,German Shepherd,9244.80999999959,familiar,close,germanshepherd.jpg,pug.jpg,survey-text,5,1084623
pilot2,A3OP24TYKA619W,37XITHEISXYKIIE786A9F29ATJ2RCT,bird,8376.044999999925,familiar,close,sparrow.jpg,eagle.jpg,survey-text,6,1093504
pilot2,A3OP24TYKA619W,37XITHEISXYKIIE786A9F29ATJ2RCT,blue shirt,7018.610000000102,familiar,close,poloshirt.jpg,hawaiishirt.jpg,survey-text,7,1101026
pilot2,A3OP24TYKA619W,37XITHEISXYKIIE786A9F29ATJ2RCT,brown bear,10198.084999999963,familiar,close,grizzlybear.jpg,polarbear.jpg,survey-text,8,1111727
pilot2,A3OP24TYKA619W,37XITHEISXYKIIE786A9F29ATJ2RCT,car,6908.195000000065,familiar,close,sedan.jpg,sportscar.jpg,survey-text,9,1119139
pilot2,A3OP24TYKA619W,37XITHEISXYKIIE786A9F29ATJ2RCT,table,7066.989999999758,familiar,close,diningtable.jpg,picnictable.jpg,survey-text,10,1126712
pilot2,A3OP24TYKA619W,37XITHEISXYKIIE786A9F29ATJ2RCT,,5397.719999999972,,,,,html-button-response,11,1132611
pilot2,A3OP24TYKA619W,37XITHEISXYKIIE786A9F29ATJ2RCT,kicking ,21070.804999999935,tangram,close,tangram-48.jpg,tangram-187.jpg,survey-text,12,1154185
pilot2,A3OP24TYKA619W,37XITHEISXYKIIE786A9F29ATJ2RCT,holding tray,17282.339999999618,tangram,close,H1.jpg,I1.jpg,survey-text,13,1171971
pilot2,A3OP24TYKA619W,37XITHEISXYKIIE786A9F29ATJ2RCT,wide stride,8531.794999999925,tangram,close,tangram-90.jpg,tangram-81.jpg,survey-text,14,1181006
pilot2,A3OP24TYKA619W,37XITHEISXYKIIE786A9F29ATJ2RCT,sitting down,10260.624999999767,tangram,close,tangram-164.jpg,tangram-183.jpg,survey-text,15,1191771
pilot2,A3OP24TYKA619W,37XITHEISXYKIIE786A9F29ATJ2RCT,facing left,9504.119999999879,tangram,close,A2.jpg,tangram-99.jpg,survey-text,16,1201780
pilot2,A2WZ8ZEB00LYF7,3OVR4I9USQ8HBDMS2CFRRENH5KDQ48,,150043.68999996223,,,,,external-html,0,150100
pilot2,A3OP24TYKA619W,37XITHEISXYKIIE786A9F29ATJ2RCT,head forward,15027.870000000345,tangram,close,tangram-55.jpg,N1.jpg,survey-text,17,1217313
pilot2,A2WZ8ZEB00LYF7,3OVR4I9USQ8HBDMS2CFRRENH5KDQ48,,4195.784999988973,,,,,html-button-response,1,154301
pilot2,A2WZ8ZEB00LYF7,3OVR4I9USQ8HBDMS2CFRRENH5KDQ48,,1259.919999865815,,,,,html-button-response,2,156562
pilot2,A2WZ8ZEB00LYF7,3OVR4I9USQ8HBDMS2CFRRENH5KDQ48,run,2952.5699999649078,tangram,isolated,tangram-55.jpg,N1.jpg,survey-text,3,160020
pilot2,A3OP24TYKA619W,37XITHEISXYKIIE786A9F29ATJ2RCT,wide stride,7215.670000000158,tangram,close,tangram-67.jpg,tangram-32.jpg,survey-text,18,1225033
pilot2,A2WZ8ZEB00LYF7,3OVR4I9USQ8HBDMS2CFRRENH5KDQ48,kick,2147.6199999451637,tangram,isolated,tangram-48.jpg,tangram-187.jpg,survey-text,4,162673
pilot2,A2WZ8ZEB00LYF7,3OVR4I9USQ8HBDMS2CFRRENH5KDQ48,kick,2237.734999973327,tangram,isolated,tangram-164.jpg,tangram-183.jpg,survey-text,5,165418
pilot2,A2WZ8ZEB00LYF7,3OVR4I9USQ8HBDMS2CFRRENH5KDQ48,pray,2611.5700001828372,tangram,isolated,H1.jpg,I1.jpg,survey-text,6,168533
pilot2,A2WZ8ZEB00LYF7,3OVR4I9USQ8HBDMS2CFRRENH5KDQ48,walk,2688.0600000731647,tangram,isolated,B1.jpg,P1.jpg,survey-text,7,171726
pilot2,A2WZ8ZEB00LYF7,3OVR4I9USQ8HBDMS2CFRRENH5KDQ48,run,3026.670000050217,tangram,isolated,tangram-90.jpg,tangram-81.jpg,survey-text,8,175258
pilot2,A2WZ8ZEB00LYF7,3OVR4I9USQ8HBDMS2CFRRENH5KDQ48,run,2047.254999866709,tangram,isolated,tangram-67.jpg,tangram-32.jpg,survey-text,9,177832
pilot2,A2WZ8ZEB00LYF7,3OVR4I9USQ8HBDMS2CFRRENH5KDQ48,slap,1880.1899999380112,tangram,isolated,A2.jpg,tangram-99.jpg,survey-text,10,180218
pilot2,A3OP24TYKA619W,37XITHEISXYKIIE786A9F29ATJ2RCT,slumped over,23510.52500000014,tangram,close,B1.jpg,P1.jpg,survey-text,19,1249047
pilot2,A3OP24TYKA619W,37XITHEISXYKIIE786A9F29ATJ2RCT,,6595.280000000028,,,,,html-button-response,20,1256145
pilot2,A2WZ8ZEB00LYF7,3OVR4I9USQ8HBDMS2CFRRENH5KDQ48,,12599.80500000529,,,,,html-button-response,11,193321
pilot2,A3OP24TYKA619W,37XITHEISXYKIIE786A9F29ATJ2RCT,running,5271.1699999999255,tangram,far,tangram-55.jpg,tangram-143.jpg,survey-text,21,1261921
pilot2,A2WZ8ZEB00LYF7,3OVR4I9USQ8HBDMS2CFRRENH5KDQ48,shirt,6266.36500004679,familiar,close,poloshirt.jpg,hawaiishirt.jpg,survey-text,12,200097
pilot2,A2WZ8ZEB00LYF7,3OVR4I9USQ8HBDMS2CFRRENH5KDQ48,candy,2745.6499999389052,familiar,close,mnms.jpg,gummybears.jpg,survey-text,13,203351
pilot2,A2WZ8ZEB00LYF7,3OVR4I9USQ8HBDMS2CFRRENH5KDQ48,dog,1293.25499990955,familiar,close,germanshepherd.jpg,pug.jpg,survey-text,14,205150
pilot2,A3OP24TYKA619W,37XITHEISXYKIIE786A9F29ATJ2RCT,funny walk,8271.684999999823,tangram,far,tangram-48.jpg,D1.jpg,survey-text,22,1270697
pilot2,A2WZ8ZEB00LYF7,3OVR4I9USQ8HBDMS2CFRRENH5KDQ48,car,1613.0850000772625,familiar,close,sedan.jpg,sportscar.jpg,survey-text,15,207269
pilot2,A2WZ8ZEB00LYF7,3OVR4I9USQ8HBDMS2CFRRENH5KDQ48,bird,2251.5549999661744,familiar,close,sparrow.jpg,eagle.jpg,survey-text,16,210026
pilot2,A2WZ8ZEB00LYF7,3OVR4I9USQ8HBDMS2CFRRENH5KDQ48,table,2326.734999893233,familiar,close,diningtable.jpg,picnictable.jpg,survey-text,17,212858
pilot2,A2WZ8ZEB00LYF7,3OVR4I9USQ8HBDMS2CFRRENH5KDQ48,fish,1554.9800000153482,familiar,close,goldfish.jpg,swordfish.jpg,survey-text,18,214918
pilot2,A2WZ8ZEB00LYF7,3OVR4I9USQ8HBDMS2CFRRENH5KDQ48,bear,1437.0950001757592,familiar,close,grizzlybear.jpg,polarbear.jpg,survey-text,19,216863
pilot2,A3OP24TYKA619W,37XITHEISXYKIIE786A9F29ATJ2RCT,depressed,10600.840000000084,tangram,far,B1.jpg,tangram-4.jpg,survey-text,23,1281802
pilot2,A2WZ8ZEB00LYF7,3OVR4I9USQ8HBDMS2CFRRENH5KDQ48,,2908.670000033453,,,,,html-button-response,20,220273
pilot2,A3OP24TYKA619W,37XITHEISXYKIIE786A9F29ATJ2RCT,holding tray,6369.735000000335,tangram,far,H1.jpg,tangram-8.jpg,survey-text,24,1288675
pilot2,A2WZ8ZEB00LYF7,3OVR4I9USQ8HBDMS2CFRRENH5KDQ48,down,6665.839999914169,tangram,far,B1.jpg,tangram-4.jpg,survey-text,21,227445
pilot2,A2WZ8ZEB00LYF7,3OVR4I9USQ8HBDMS2CFRRENH5KDQ48,run,1780.5800000205636,tangram,far,tangram-55.jpg,tangram-143.jpg,survey-text,22,229731
pilot2,A3OP24TYKA619W,37XITHEISXYKIIE786A9F29ATJ2RCT,running,5913.355000000214,tangram,far,tangram-67.jpg,G1.jpg,survey-text,25,1295091
pilot2,A2WZ8ZEB00LYF7,3OVR4I9USQ8HBDMS2CFRRENH5KDQ48,ready,3155.009999871254,tangram,far,A2.jpg,C1.jpg,survey-text,23,233390
pilot2,A2WZ8ZEB00LYF7,3OVR4I9USQ8HBDMS2CFRRENH5KDQ48,kick,3791.6699999477714,tangram,far,tangram-164.jpg,tangram-64.jpg,survey-text,24,237696
pilot2,A2WZ8ZEB00LYF7,3OVR4I9USQ8HBDMS2CFRRENH5KDQ48,stance,3007.0700000505894,tangram,far,tangram-90.jpg,tangram-120.jpg,survey-text,25,241207
pilot2,A2WZ8ZEB00LYF7,3OVR4I9USQ8HBDMS2CFRRENH5KDQ48,full,3415.999999968335,tangram,far,H1.jpg,tangram-8.jpg,survey-text,26,245128
pilot2,A3OP24TYKA619W,37XITHEISXYKIIE786A9F29ATJ2RCT,wide stride,17591.00500000012,tangram,far,tangram-90.jpg,tangram-120.jpg,survey-text,26,1313186
pilot2,A2WZ8ZEB00LYF7,3OVR4I9USQ8HBDMS2CFRRENH5KDQ48,run,3694.7399999480695,tangram,far,tangram-67.jpg,G1.jpg,survey-text,27,249328
pilot2,A2WZ8ZEB00LYF7,3OVR4I9USQ8HBDMS2CFRRENH5KDQ48,kick,2067.8550000302494,tangram,far,tangram-48.jpg,D1.jpg,survey-text,28,251901
pilot2,A2WZ8ZEB00LYF7,3OVR4I9USQ8HBDMS2CFRRENH5KDQ48,,3594.085000222549,,,,,html-button-response,29,255998
pilot2,A3OP24TYKA619W,37XITHEISXYKIIE786A9F29ATJ2RCT,facing left,9025.334999999963,tangram,far,A2.jpg,C1.jpg,survey-text,27,1322716
pilot2,A2WZ8ZEB00LYF7,3OVR4I9USQ8HBDMS2CFRRENH5KDQ48,bird,3999.3300000205636,familiar,isolated,sparrow.jpg,eagle.jpg,survey-text,30,260503
pilot2,A2WZ8ZEB00LYF7,3OVR4I9USQ8HBDMS2CFRRENH5KDQ48,fish,1591.3899999577552,familiar,isolated,goldfish.jpg,swordfish.jpg,survey-text,31,262600
pilot2,A2WZ8ZEB00LYF7,3OVR4I9USQ8HBDMS2CFRRENH5KDQ48,shirt,2660.6950000859797,familiar,isolated,poloshirt.jpg,hawaiishirt.jpg,survey-text,32,265766
pilot2,A2WZ8ZEB00LYF7,3OVR4I9USQ8HBDMS2CFRRENH5KDQ48,bear,1303.1949999276549,familiar,isolated,grizzlybear.jpg,polarbear.jpg,survey-text,33,267574
pilot2,A2WZ8ZEB00LYF7,3OVR4I9USQ8HBDMS2CFRRENH5KDQ48,car,1449.534999905154,familiar,isolated,sedan.jpg,sportscar.jpg,survey-text,34,269530
pilot2,A2WZ8ZEB00LYF7,3OVR4I9USQ8HBDMS2CFRRENH5KDQ48,candy,2441.7900000698864,familiar,isolated,mnms.jpg,gummybears.jpg,survey-text,35,272476
pilot2,A2WZ8ZEB00LYF7,3OVR4I9USQ8HBDMS2CFRRENH5KDQ48,dog,1255.5200001224875,familiar,isolated,germanshepherd.jpg,pug.jpg,survey-text,36,274236
pilot2,A3OP24TYKA619W,37XITHEISXYKIIE786A9F29ATJ2RCT,leg up,16051.999999999534,tangram,far,tangram-164.jpg,tangram-64.jpg,survey-text,28,1339271
pilot2,A2WZ8ZEB00LYF7,3OVR4I9USQ8HBDMS2CFRRENH5KDQ48,table,1517.024999950081,familiar,isolated,diningtable.jpg,picnictable.jpg,survey-text,37,276258
pilot2,A3OP24TYKA619W,37XITHEISXYKIIE786A9F29ATJ2RCT,,2754.5749999999534,,,,,html-button-response,29,1342527
pilot2,A2WZ8ZEB00LYF7,3OVR4I9USQ8HBDMS2CFRRENH5KDQ48,,2331.084999954328,,,,,html-button-response,38,279092
pilot2,A2WZ8ZEB00LYF7,3OVR4I9USQ8HBDMS2CFRRENH5KDQ48,snack,3919.2199998069555,familiar,far,mnms.jpg,pretzels.jpg,survey-text,39,283517
pilot2,A3OP24TYKA619W,37XITHEISXYKIIE786A9F29ATJ2RCT,running,7772.789999999804,tangram,isolated,tangram-67.jpg,tangram-32.jpg,survey-text,30,1350803
pilot2,A2WZ8ZEB00LYF7,3OVR4I9USQ8HBDMS2CFRRENH5KDQ48,animal,2381.16000010632,familiar,far,goldfish.jpg,iguana.jpg,survey-text,40,286403
pilot2,A2WZ8ZEB00LYF7,3OVR4I9USQ8HBDMS2CFRRENH5KDQ48,mammal,2821.3400000240654,familiar,far,germanshepherd.jpg,cow.jpg,survey-text,41,289729
pilot2,A3OP24TYKA619W,37XITHEISXYKIIE786A9F29ATJ2RCT,facing left,4223.070000000065,tangram,isolated,A2.jpg,tangram-99.jpg,survey-text,31,1355529
pilot2,A3OP24TYKA619W,37XITHEISXYKIIE786A9F29ATJ2RCT,funny walk,8380.72499999986,tangram,isolated,tangram-48.jpg,tangram-187.jpg,survey-text,32,1364413
pilot2,A2WZ8ZEB00LYF7,3OVR4I9USQ8HBDMS2CFRRENH5KDQ48,clothes,9294.16499985382,familiar,far,poloshirt.jpg,dress.jpg,survey-text,42,299528
pilot2,A2WZ8ZEB00LYF7,3OVR4I9USQ8HBDMS2CFRRENH5KDQ48,automobile,3413.0149998236448,familiar,far,sedan.jpg,firetruck.jpg,survey-text,43,303446
pilot2,A2WZ8ZEB00LYF7,3OVR4I9USQ8HBDMS2CFRRENH5KDQ48,animal,2083.8250000961125,familiar,far,grizzlybear.jpg,lion.jpg,survey-text,44,306038
pilot2,A3OP24TYKA619W,37XITHEISXYKIIE786A9F29ATJ2RCT,depressed,7384.059999999823,tangram,isolated,B1.jpg,P1.jpg,survey-text,33,1372299
pilot2,A2WZ8ZEB00LYF7,3OVR4I9USQ8HBDMS2CFRRENH5KDQ48,wood,2515.144999837503,familiar,far,diningtable.jpg,wardrobe.jpg,survey-text,45,309058
pilot2,A3OP24TYKA619W,37XITHEISXYKIIE786A9F29ATJ2RCT,holding tray,4235.729999999981,tangram,isolated,H1.jpg,I1.jpg,survey-text,34,1377039
pilot2,A2WZ8ZEB00LYF7,3OVR4I9USQ8HBDMS2CFRRENH5KDQ48,animal,2751.2799999676645,familiar,far,sparrow.jpg,squirrel.jpg,survey-text,46,312316
pilot2,A2WZ8ZEB00LYF7,3OVR4I9USQ8HBDMS2CFRRENH5KDQ48,,2522.154999896884,,,,,html-button-response,47,315342
pilot2,A3OP24TYKA619W,37XITHEISXYKIIE786A9F29ATJ2RCT,wide stride,6330.060000000056,tangram,isolated,tangram-90.jpg,tangram-81.jpg,survey-text,35,1383873
pilot2,A2WZ8ZEB00LYF7,3OVR4I9USQ8HBDMS2CFRRENH5KDQ48,run,3569.415000034496,tangram,close,tangram-90.jpg,tangram-81.jpg,survey-text,48,319417
pilot2,A2WZ8ZEB00LYF7,3OVR4I9USQ8HBDMS2CFRRENH5KDQ48,pray,1533.8449999690056,tangram,close,H1.jpg,I1.jpg,survey-text,49,321457
pilot2,A2WZ8ZEB00LYF7,3OVR4I9USQ8HBDMS2CFRRENH5KDQ48,run,1380.5050000082701,tangram,close,tangram-55.jpg,N1.jpg,survey-text,50,323343
pilot2,A3OP24TYKA619W,37XITHEISXYKIIE786A9F29ATJ2RCT,kicking ,5352.54000000027,tangram,isolated,tangram-164.jpg,tangram-183.jpg,survey-text,36,1389729
pilot2,A2WZ8ZEB00LYF7,3OVR4I9USQ8HBDMS2CFRRENH5KDQ48,walk,1422.5349999032915,tangram,close,B1.jpg,P1.jpg,survey-text,51,325271
pilot2,A2WZ8ZEB00LYF7,3OVR4I9USQ8HBDMS2CFRRENH5KDQ48,kick,1360.9399998094887,tangram,close,tangram-164.jpg,tangram-183.jpg,survey-text,52,327137
pilot2,A2WZ8ZEB00LYF7,3OVR4I9USQ8HBDMS2CFRRENH5KDQ48,fist,2123.20000003092,tangram,close,A2.jpg,tangram-99.jpg,survey-text,53,329766
pilot2,A3OP24TYKA619W,37XITHEISXYKIIE786A9F29ATJ2RCT,running,5829.690000000177,tangram,isolated,tangram-55.jpg,N1.jpg,survey-text,37,1396063
pilot2,A2WZ8ZEB00LYF7,3OVR4I9USQ8HBDMS2CFRRENH5KDQ48,kick,1330.5849998723716,tangram,close,tangram-48.jpg,tangram-187.jpg,survey-text,54,331602
pilot2,A2WZ8ZEB00LYF7,3OVR4I9USQ8HBDMS2CFRRENH5KDQ48,run,1177.2700001019984,tangram,close,tangram-67.jpg,tangram-32.jpg,survey-text,55,333284
pilot2,A3OP24TYKA619W,37XITHEISXYKIIE786A9F29ATJ2RCT,,5582.689999999711,,,,,html-button-response,38,1402149
pilot2,A3OP24TYKA619W,37XITHEISXYKIIE786A9F29ATJ2RCT,bird,6151.960000000196,familiar,far,sparrow.jpg,squirrel.jpg,survey-text,39,1408805
pilot2,A3OP24TYKA619W,37XITHEISXYKIIE786A9F29ATJ2RCT,table,3120.285000000149,familiar,far,diningtable.jpg,wardrobe.jpg,survey-text,40,1412428
pilot2,A3OP24TYKA619W,37XITHEISXYKIIE786A9F29ATJ2RCT,German Shepherd,5121.685000000056,familiar,far,germanshepherd.jpg,cow.jpg,survey-text,41,1418053
pilot2,A3OP24TYKA619W,37XITHEISXYKIIE786A9F29ATJ2RCT,car,3520.315000000177,familiar,far,sedan.jpg,firetruck.jpg,survey-text,42,1422078
pilot2,A3OP24TYKA619W,37XITHEISXYKIIE786A9F29ATJ2RCT,blue shirt,5284.610000000102,familiar,far,poloshirt.jpg,dress.jpg,survey-text,43,1427865
pilot2,A3OP24TYKA619W,37XITHEISXYKIIE786A9F29ATJ2RCT,m&ms,4786.244999999879,familiar,far,mnms.jpg,pretzels.jpg,survey-text,44,1433155
pilot2,A3OP24TYKA619W,37XITHEISXYKIIE786A9F29ATJ2RCT,brown bear,6393.154999999795,familiar,far,grizzlybear.jpg,lion.jpg,survey-text,45,1440052
