iterationName,aID,utterance,rt,target_type,competitor_type,target,foil,trial_type,trial_index,time_elapsed
testing,3ZPBJO59KQQHYG6ICXTQL4PM9D3HDX,,9167.809999999918,,,,,html-button-response,0,9173
testing,3ZPBJO59KQQHYG6ICXTQL4PM9D3HDX,,3764.5649999999478,,,,,html-button-response,1,13948
testing,3ZAK8W07I53S4IB80KCUPCUT9WWU0I,,74388.39999999618,,,,,html-button-response,0,74392
testing,3ZPBJO59KQQHYG6ICXTQL4PM9D3HDX,table,4867.2100000001155,familiar,isolated,diningtable.jpg,picnictable.jpg,survey-text,2,19330
testing,3ZAK8W07I53S4IB80KCUPCUT9WWU0I,,2328.0999999988126,,,,,html-button-response,1,77742
testing,3ZPBJO59KQQHYG6ICXTQL4PM9D3HDX,candy,3957.510000000184,familiar,isolated,mnms.jpg,gummybears.jpg,survey-text,3,23805
testing,3ZPBJO59KQQHYG6ICXTQL4PM9D3HDX,bird,3667.1349999999184,familiar,isolated,sparrow.jpg,eagle.jpg,survey-text,4,27994
testing,3ZAK8W07I53S4IB80KCUPCUT9WWU0I,walker,8399.714999992284,tangram,far,B1.jpg,O1.jpg,survey-text,2,86657
testing,3ZPBJO59KQQHYG6ICXTQL4PM9D3HDX,shirt,4731.379999999946,familiar,isolated,poloshirt.jpg,hawaiishirt.jpg,survey-text,5,33241
testing,3ZAK8W07I53S4IB80KCUPCUT9WWU0I,jump,4747.159999998985,tangram,far,E1.jpg,C2.jpg,survey-text,3,91908
testing,3ZPBJO59KQQHYG6ICXTQL4PM9D3HDX,car,3854.325000000019,familiar,isolated,sedan.jpg,sportscar.jpg,survey-text,6,37609
testing,3ZAK8W07I53S4IB80KCUPCUT9WWU0I,catch,4044.020000001183,tangram,far,F1.jpg,C1.jpg,survey-text,4,96458
testing,3ZPBJO59KQQHYG6ICXTQL4PM9D3HDX,bear,4646.650000000132,familiar,isolated,grizzlybear.jpg,polarbear.jpg,survey-text,7,42768
testing,3ZAK8W07I53S4IB80KCUPCUT9WWU0I,lean,4911.684999999125,tangram,far,K1.jpg,V1.jpg,survey-text,5,101874
testing,3ZPBJO59KQQHYG6ICXTQL4PM9D3HDX,goldfish,5905.004999999845,familiar,isolated,goldfish.jpg,swordfish.jpg,survey-text,8,49188
testing,3ZAK8W07I53S4IB80KCUPCUT9WWU0I,pray,6466.260000001057,tangram,far,H1.jpg,A2.jpg,survey-text,6,108845
testing,3ZPBJO59KQQHYG6ICXTQL4PM9D3HDX,dog,5718.730000000054,familiar,isolated,germanshepherd.jpg,pug.jpg,survey-text,9,55422
testing,3ZAK8W07I53S4IB80KCUPCUT9WWU0I,run,4499.655000006896,tangram,far,A1.jpg,D1.jpg,survey-text,7,113850
testing,3ZPBJO59KQQHYG6ICXTQL4PM9D3HDX,,3848.5749999999825,,,,,html-button-response,10,59782
testing,3ZAK8W07I53S4IB80KCUPCUT9WWU0I,kneel,4749.414999998407,tangram,far,G1.jpg,N1.jpg,survey-text,8,119103
testing,3ZAK8W07I53S4IB80KCUPCUT9WWU0I,serve,6940.549999999348,tangram,far,I1.jpg,R1.jpg,survey-text,9,126547
testing,3ZAK8W07I53S4IB80KCUPCUT9WWU0I,,2453.2000000035623,,,,,html-button-response,10,129512
testing,3ZPBJO59KQQHYG6ICXTQL4PM9D3HDX,fish,11536.640000000029,familiar,close,goldfish.jpg,swordfish.jpg,survey-text,11,71831
testing,3ZAK8W07I53S4IB80KCUPCUT9WWU0I,kneel,4009.5650000002934,tangram,close,G1.jpg,M1.jpg,survey-text,11,134025
testing,3ZPBJO59KQQHYG6ICXTQL4PM9D3HDX,solid,7104.77499999979,familiar,close,poloshirt.jpg,hawaiishirt.jpg,survey-text,12,79448
testing,3ZAK8W07I53S4IB80KCUPCUT9WWU0I,dog,9214.705000005779,tangram,close,K1.jpg,T1.jpg,survey-text,12,143745
testing,3ZPBJO59KQQHYG6ICXTQL4PM9D3HDX,shepherd,7542.914999999994,familiar,close,germanshepherd.jpg,pug.jpg,survey-text,13,87503
testing,3ZAK8W07I53S4IB80KCUPCUT9WWU0I,jump,6365.414999992936,tangram,close,E1.jpg,F1.jpg,survey-text,13,150614
testing,3ZPBJO59KQQHYG6ICXTQL4PM9D3HDX,grizzly,7273.800000000163,familiar,close,grizzlybear.jpg,polarbear.jpg,survey-text,14,95302
testing,3ZPBJO59KQQHYG6ICXTQL4PM9D3HDX,interior,9399.539999999892,familiar,close,diningtable.jpg,picnictable.jpg,survey-text,15,105215
testing,3ZPBJO59KQQHYG6ICXTQL4PM9D3HDX,practical,13994.71500000004,familiar,close,sedan.jpg,sportscar.jpg,survey-text,16,119721
testing,3ZAK8W07I53S4IB80KCUPCUT9WWU0I,bird,30160.345000011148,tangram,close,A1.jpg,A2.jpg,survey-text,14,181278
testing,3ZPBJO59KQQHYG6ICXTQL4PM9D3HDX,common,5537.739999999976,familiar,close,sparrow.jpg,eagle.jpg,survey-text,17,125774
testing,3ZPBJO59KQQHYG6ICXTQL4PM9D3HDX,classic,14001.76499999997,familiar,close,mnms.jpg,gummybears.jpg,survey-text,18,140285
testing,3ZPBJO59KQQHYG6ICXTQL4PM9D3HDX,,2146.195000000036,,,,,html-button-response,19,142937
testing,3ZPBJO59KQQHYG6ICXTQL4PM9D3HDX,shirt,6816.914999999892,familiar,far,poloshirt.jpg,dress.jpg,survey-text,20,150263
testing,3ZPBJO59KQQHYG6ICXTQL4PM9D3HDX,bird,6108.7650000001595,familiar,far,sparrow.jpg,squirrel.jpg,survey-text,21,156886
testing,3ZPBJO59KQQHYG6ICXTQL4PM9D3HDX,candy,6537.949999999924,familiar,far,mnms.jpg,pretzels.jpg,survey-text,22,163930
testing,3ZPBJO59KQQHYG6ICXTQL4PM9D3HDX,dog,5129.815000000031,familiar,far,germanshepherd.jpg,cow.jpg,survey-text,23,169567
testing,3ZPBJO59KQQHYG6ICXTQL4PM9D3HDX,car,3712.6200000000244,familiar,far,sedan.jpg,firetruck.jpg,survey-text,24,173793
testing,3ZPBJO59KQQHYG6ICXTQL4PM9D3HDX,table,4901.714999999967,familiar,far,diningtable.jpg,wardrobe.jpg,survey-text,25,179205
testing,3ZPBJO59KQQHYG6ICXTQL4PM9D3HDX,grizzly,5968.169999999867,familiar,far,grizzlybear.jpg,lion.jpg,survey-text,26,185692
testing,3ZPBJO59KQQHYG6ICXTQL4PM9D3HDX,goldfish,9008.514999999985,familiar,far,goldfish.jpg,iguana.jpg,survey-text,27,195211
testing,3ZPBJO59KQQHYG6ICXTQL4PM9D3HDX,,2007.5450000001583,,,,,html-button-response,28,197725
testing,3ZPBJO59KQQHYG6ICXTQL4PM9D3HDX,person,8541.844999999972,tangram,close,H1.jpg,Y1.jpg,survey-text,29,206776
testing,3ZPBJO59KQQHYG6ICXTQL4PM9D3HDX,jump,5588.229999999836,tangram,close,E1.jpg,F1.jpg,survey-text,30,212868
testing,3ZPBJO59KQQHYG6ICXTQL4PM9D3HDX,catch,8749.540000000037,tangram,close,F1.jpg,W1.jpg,survey-text,31,222130
testing,3ZPBJO59KQQHYG6ICXTQL4PM9D3HDX,walk,6634.1500000000815,tangram,close,B1.jpg,P1.jpg,survey-text,32,229268
testing,3ZPBJO59KQQHYG6ICXTQL4PM9D3HDX,sit,7013.229999999807,tangram,close,G1.jpg,M1.jpg,survey-text,33,236796
testing,3ZPBJO59KQQHYG6ICXTQL4PM9D3HDX,run,4289.524999999936,tangram,close,A1.jpg,A2.jpg,survey-text,34,241603
testing,3ZPBJO59KQQHYG6ICXTQL4PM9D3HDX,offer,5343.19499999992,tangram,close,I1.jpg,J1.jpg,survey-text,35,247463
testing,3ZPBJO59KQQHYG6ICXTQL4PM9D3HDX,bow,8801.944999999949,tangram,close,K1.jpg,T1.jpg,survey-text,36,256779
testing,3ZPBJO59KQQHYG6ICXTQL4PM9D3HDX,,1696.2849999999744,,,,,html-button-response,37,258977
testing,3ZPBJO59KQQHYG6ICXTQL4PM9D3HDX,sit,5492.5100000000675,tangram,far,G1.jpg,N1.jpg,survey-text,38,264988
testing,3ZPBJO59KQQHYG6ICXTQL4PM9D3HDX,offer,3898.7050000000745,tangram,far,I1.jpg,R1.jpg,survey-text,39,269391
testing,3ZPBJO59KQQHYG6ICXTQL4PM9D3HDX,hold,8092.795000000042,tangram,far,H1.jpg,A2.jpg,survey-text,40,277996
testing,3ZPBJO59KQQHYG6ICXTQL4PM9D3HDX,run,4907.595000000147,tangram,far,A1.jpg,D1.jpg,survey-text,41,283412
testing,3ZPBJO59KQQHYG6ICXTQL4PM9D3HDX,offer,4212.479999999923,tangram,far,K1.jpg,V1.jpg,survey-text,42,288130
testing,3ZPBJO59KQQHYG6ICXTQL4PM9D3HDX,jump,5162.925000000105,tangram,far,E1.jpg,C2.jpg,survey-text,43,293801
testing,3ZPBJO59KQQHYG6ICXTQL4PM9D3HDX,catch,5273.539999999921,tangram,far,F1.jpg,C1.jpg,survey-text,44,299578
testing,3ZPBJO59KQQHYG6ICXTQL4PM9D3HDX,walk,4680.285000000149,tangram,far,B1.jpg,O1.jpg,survey-text,45,304772
testing,3ZPBJO59KQQHYG6ICXTQL4PM9D3HDX,,1900.645000000135,,,,,html-button-response,46,307179
testing,3ZPBJO59KQQHYG6ICXTQL4PM9D3HDX,walk,6032.2900000000955,tangram,isolated,B1.jpg,P1.jpg,survey-text,47,313717
testing,3ZPBJO59KQQHYG6ICXTQL4PM9D3HDX,jump,4270.42499999993,tangram,isolated,E1.jpg,F1.jpg,survey-text,48,318497
testing,3ZPBJO59KQQHYG6ICXTQL4PM9D3HDX,hold,3902.4400000000605,tangram,isolated,H1.jpg,Y1.jpg,survey-text,49,322910
testing,3ZPBJO59KQQHYG6ICXTQL4PM9D3HDX,run,4042.430000000226,tangram,isolated,A1.jpg,A2.jpg,survey-text,50,327457
testing,3ZPBJO59KQQHYG6ICXTQL4PM9D3HDX,offer,6848.90000000014,tangram,isolated,I1.jpg,J1.jpg,survey-text,51,334822
testing,3ZPBJO59KQQHYG6ICXTQL4PM9D3HDX,offer,4550.285000000033,tangram,isolated,K1.jpg,T1.jpg,survey-text,52,339882
testing,3ZPBJO59KQQHYG6ICXTQL4PM9D3HDX,catch,4700.559999999998,tangram,isolated,F1.jpg,W1.jpg,survey-text,53,345097
testing,3ZPBJO59KQQHYG6ICXTQL4PM9D3HDX,sit,3699.914999999921,tangram,isolated,G1.jpg,M1.jpg,survey-text,54,349311
testing,30OG32W0SV0E0I6TBQZNW643V1DNE5,,648887.1199999994,,,,,html-button-response,0,648894
testing,30OG32W0SV0E0I6TBQZNW643V1DNE5,,1126.3749999998836,,,,,html-button-response,1,651028
testing,30OG32W0SV0E0I6TBQZNW643V1DNE5,M&M's,13513.585000000661,familiar,close,mnms.jpg,gummybears.jpg,survey-text,2,665047
testing,30OG32W0SV0E0I6TBQZNW643V1DNE5,finch,5314.619999997434,familiar,close,sparrow.jpg,eagle.jpg,survey-text,3,670867
testing,30OG32W0SV0E0I6TBQZNW643V1DNE5,brown,6682.220000002417,familiar,close,grizzlybear.jpg,polarbear.jpg,survey-text,4,678053
testing,30OG32W0SV0E0I6TBQZNW643V1DNE5,gold,5332.665000001667,familiar,close,goldfish.jpg,swordfish.jpg,survey-text,5,683890
testing,30OG32W0SV0E0I6TBQZNW643V1DNE5,blue,3366.7500000009313,familiar,close,sedan.jpg,sportscar.jpg,survey-text,6,687761
testing,30OG32W0SV0E0I6TBQZNW643V1DNE5,german,3579.834999996936,familiar,close,germanshepherd.jpg,pug.jpg,survey-text,7,691845
testing,30OG32W0SV0E0I6TBQZNW643V1DNE5,indoor,4798.979999999516,familiar,close,diningtable.jpg,picnictable.jpg,survey-text,8,697147
testing,30OG32W0SV0E0I6TBQZNW643V1DNE5,polo,3689.1600000016624,familiar,close,poloshirt.jpg,hawaiishirt.jpg,survey-text,9,701340
testing,30OG32W0SV0E0I6TBQZNW643V1DNE5,,5570.214999999851,,,,,html-button-response,10,707412
testing,30OG32W0SV0E0I6TBQZNW643V1DNE5,run,5644.655000003753,tangram,far,A1.jpg,D1.jpg,survey-text,11,713561
testing,30OG32W0SV0E0I6TBQZNW643V1DNE5,leap,4257.344999998109,tangram,far,E1.jpg,C2.jpg,survey-text,12,718321
testing,30OG32W0SV0E0I6TBQZNW643V1DNE5,sulk,7512.640000000829,tangram,far,B1.jpg,O1.jpg,survey-text,13,726337
testing,30OG32W0SV0E0I6TBQZNW643V1DNE5,lift,4273.549999997951,tangram,far,F1.jpg,C1.jpg,survey-text,14,731114
testing,30OG32W0SV0E0I6TBQZNW643V1DNE5,pray,6631.890000004205,tangram,far,H1.jpg,A2.jpg,survey-text,15,738250
testing,30OG32W0SV0E0I6TBQZNW643V1DNE5,sit,5081.979999995325,tangram,far,G1.jpg,N1.jpg,survey-text,16,743835
testing,30OG32W0SV0E0I6TBQZNW643V1DNE5,bend,20198.230000001844,tangram,far,K1.jpg,V1.jpg,survey-text,17,764538
testing,30OG32W0SV0E0I6TBQZNW643V1DNE5,eat,4232.085000003339,tangram,far,I1.jpg,R1.jpg,survey-text,18,769275
testing,30OG32W0SV0E0I6TBQZNW643V1DNE5,,13064.500000000466,,,,,html-button-response,19,782843
testing,30OG32W0SV0E0I6TBQZNW643V1DNE5,sad,8967.105000003241,tangram,isolated,B1.jpg,P1.jpg,survey-text,20,792314
testing,3YW4XOSQKRASB7WQW3GU3HD3EO2U1L,,12886.000000173226,,,,,html-button-response,0,12898
testing,3YW4XOSQKRASB7WQW3GU3HD3EO2U1L,,7904.799999902025,,,,,html-button-response,1,21824
testing,3YW4XOSQKRASB7WQW3GU3HD3EO2U1L,Shirt,8891.700000036508,familiar,close,poloshirt.jpg,hawaiishirt.jpg,survey-text,2,31252
testing,3YW4XOSQKRASB7WQW3GU3HD3EO2U1L,shepard,11798.900000052527,familiar,close,germanshepherd.jpg,pug.jpg,survey-text,3,43563
testing,3YW4XOSQKRASB7WQW3GU3HD3EO2U1L,round,9253.59999993816,familiar,close,mnms.jpg,gummybears.jpg,survey-text,4,53347
testing,3YW4XOSQKRASB7WQW3GU3HD3EO2U1L,brown,7711.499999975786,familiar,close,grizzlybear.jpg,polarbear.jpg,survey-text,5,61589
testing,3YW4XOSQKRASB7WQW3GU3HD3EO2U1L,Blue,7353.800000157207,familiar,close,sedan.jpg,sportscar.jpg,survey-text,6,69471
testing,3YW4XOSQKRASB7WQW3GU3HD3EO2U1L,gold,3462.7999998629093,familiar,close,goldfish.jpg,swordfish.jpg,survey-text,7,73465
testing,30OG32W0SV0E0I6TBQZNW643V1DNE5,offer,172637.8249999981,tangram,isolated,I1.jpg,J1.jpg,survey-text,21,965455
testing,30OG32W0SV0E0I6TBQZNW643V1DNE5,leap,3620.4500000022817,tangram,isolated,E1.jpg,F1.jpg,survey-text,22,969579
testing,3YW4XOSQKRASB7WQW3GU3HD3EO2U1L,Long,11306.899999966845,familiar,close,diningtable.jpg,picnictable.jpg,survey-text,8,85302
testing,30OG32W0SV0E0I6TBQZNW643V1DNE5,skip,5388.9500000005355,tangram,isolated,A1.jpg,A2.jpg,survey-text,23,975471
testing,3YW4XOSQKRASB7WQW3GU3HD3EO2U1L,Small,8346.800000173971,familiar,close,sparrow.jpg,eagle.jpg,survey-text,9,94176
testing,30OG32W0SV0E0I6TBQZNW643V1DNE5,lift,9075.240000005579,tangram,isolated,F1.jpg,W1.jpg,survey-text,24,985051
testing,30OG32W0SV0E0I6TBQZNW643V1DNE5,pray,3755.2800000049174,tangram,isolated,H1.jpg,Y1.jpg,survey-text,25,989310
testing,30OG32W0SV0E0I6TBQZNW643V1DNE5,reach,3704.760000000475,tangram,isolated,K1.jpg,T1.jpg,survey-text,26,993517
testing,30OG32W0SV0E0I6TBQZNW643V1DNE5,sit,2853.9000000017695,tangram,isolated,G1.jpg,M1.jpg,survey-text,27,996874
testing,30OG32W0SV0E0I6TBQZNW643V1DNE5,,1971.870000001276,,,,,html-button-response,28,999349
testing,30OG32W0SV0E0I6TBQZNW643V1DNE5,shirt,5158.775000003632,familiar,far,poloshirt.jpg,dress.jpg,survey-text,29,1005012
testing,30OG32W0SV0E0I6TBQZNW643V1DNE5,table,3072.050000002375,familiar,far,diningtable.jpg,wardrobe.jpg,survey-text,30,1008587
testing,30OG32W0SV0E0I6TBQZNW643V1DNE5,fish,3481.005000001518,familiar,far,goldfish.jpg,iguana.jpg,survey-text,31,1012572
testing,30OG32W0SV0E0I6TBQZNW643V1DNE5,bear,2882.194999998319,familiar,far,grizzlybear.jpg,lion.jpg,survey-text,32,1015958
testing,30OG32W0SV0E0I6TBQZNW643V1DNE5,bird,3531.2049999992596,familiar,far,sparrow.jpg,squirrel.jpg,survey-text,33,1019994
testing,3W2LOLRXLC421GQV0JR73LMIGVYKRA,,1835.3000000001884,,,,,html-button-response,0,1840
testing,3W2LOLRXLC421GQV0JR73LMIGVYKRA,,3817.609999999604,,,,,html-button-response,1,6665
testing,30OG32W0SV0E0I6TBQZNW643V1DNE5,candy,34995.18499999982,familiar,far,mnms.jpg,pretzels.jpg,survey-text,34,1055493
testing,3ZGVPD4G6U6A6Q2949ZCQFBD8P8TZI,,51503.81500000367,,,,,html-button-response,0,51507
testing,30OG32W0SV0E0I6TBQZNW643V1DNE5,car,4956.369999999879,familiar,far,sedan.jpg,firetruck.jpg,survey-text,35,1060953
testing,3ZGVPD4G6U6A6Q2949ZCQFBD8P8TZI,,2795.7549999991897,,,,,html-button-response,1,55318
testing,30OG32W0SV0E0I6TBQZNW643V1DNE5,dog,2975.9750000012573,familiar,far,germanshepherd.jpg,cow.jpg,survey-text,36,1064434
testing,30OG32W0SV0E0I6TBQZNW643V1DNE5,,1963.7499999953434,,,,,html-button-response,37,1066900
testing,3ZGVPD4G6U6A6Q2949ZCQFBD8P8TZI,dark,5672.495000006165,familiar,close,grizzlybear.jpg,polarbear.jpg,survey-text,2,61495
testing,3W2LOLRXLC421GQV0JR73LMIGVYKRA,dog,17687.7199999999,familiar,far,germanshepherd.jpg,cow.jpg,survey-text,2,24865
testing,3ZGVPD4G6U6A6Q2949ZCQFBD8P8TZI,gold,2967.879999996512,familiar,close,goldfish.jpg,swordfish.jpg,survey-text,3,64966
testing,3W2LOLRXLC421GQV0JR73LMIGVYKRA,m&m,6420.4800000002215,familiar,far,mnms.jpg,pretzels.jpg,survey-text,3,31794
testing,3ZGVPD4G6U6A6Q2949ZCQFBD8P8TZI,hard,9930.80000000191,familiar,close,mnms.jpg,gummybears.jpg,survey-text,4,75414
testing,3ZGVPD4G6U6A6Q2949ZCQFBD8P8TZI,plain,4735.155000002123,familiar,close,poloshirt.jpg,hawaiishirt.jpg,survey-text,5,80662
testing,3ZGVPD4G6U6A6Q2949ZCQFBD8P8TZI,inside,4418.36000001058,familiar,close,diningtable.jpg,picnictable.jpg,survey-text,6,85598
testing,3ZGVPD4G6U6A6Q2949ZCQFBD8P8TZI,small,2745.2550000016345,familiar,close,sparrow.jpg,eagle.jpg,survey-text,7,88854
testing,3ZGVPD4G6U6A6Q2949ZCQFBD8P8TZI,commuter,4656.295000007958,familiar,close,sedan.jpg,sportscar.jpg,survey-text,8,94014
testing,3ZGVPD4G6U6A6Q2949ZCQFBD8P8TZI,big,2888.919999997597,familiar,close,germanshepherd.jpg,pug.jpg,survey-text,9,97414
testing,3W2LOLRXLC421GQV0JR73LMIGVYKRA,shirt,29511.015000000043,familiar,far,poloshirt.jpg,dress.jpg,survey-text,4,61811
testing,3ZGVPD4G6U6A6Q2949ZCQFBD8P8TZI,,2930.5349999922328,,,,,html-button-response,10,100851
testing,3ZGVPD4G6U6A6Q2949ZCQFBD8P8TZI,abstract,6609.940000009374,tangram,close,F1.jpg,W1.jpg,survey-text,11,107966
testing,3ZGVPD4G6U6A6Q2949ZCQFBD8P8TZI,man,3810.2149999904213,tangram,close,H1.jpg,Y1.jpg,survey-text,12,112295
testing,3ZGVPD4G6U6A6Q2949ZCQFBD8P8TZI,giving,4700.909999999567,tangram,close,I1.jpg,J1.jpg,survey-text,13,117510
testing,30OG32W0SV0E0I6TBQZNW643V1DNE5,sit,59023.97000000207,tangram,close,G1.jpg,M1.jpg,survey-text,38,1126428
testing,3W2LOLRXLC421GQV0JR73LMIGVYKRA,car,22480.939999999915,familiar,far,sedan.jpg,firetruck.jpg,survey-text,5,84798
testing,3ZGVPD4G6U6A6Q2949ZCQFBD8P8TZI,thin,6289.734999998473,tangram,close,A1.jpg,A2.jpg,survey-text,14,124310
testing,3ZGVPD4G6U6A6Q2949ZCQFBD8P8TZI,leaning,3260.425000000396,tangram,close,B1.jpg,P1.jpg,survey-text,15,128078
testing,30OG32W0SV0E0I6TBQZNW643V1DNE5,lean,7288.825000003213,tangram,close,K1.jpg,T1.jpg,survey-text,39,1134221
testing,30OG32W0SV0E0I6TBQZNW643V1DNE5,leap,4906.074999999022,tangram,close,E1.jpg,F1.jpg,survey-text,40,1139630
testing,3ZGVPD4G6U6A6Q2949ZCQFBD8P8TZI,jumping,7338.215000010678,tangram,close,E1.jpg,F1.jpg,survey-text,16,135918
testing,30OG32W0SV0E0I6TBQZNW643V1DNE5,sulk,3222.4700000006706,tangram,close,B1.jpg,P1.jpg,survey-text,41,1143356
testing,3W2LOLRXLC421GQV0JR73LMIGVYKRA,table,14793.020000000062,familiar,far,diningtable.jpg,wardrobe.jpg,survey-text,6,100098
testing,3ZGVPD4G6U6A6Q2949ZCQFBD8P8TZI,slim,3252.4649999977555,tangram,close,G1.jpg,M1.jpg,survey-text,17,139679
testing,30OG32W0SV0E0I6TBQZNW643V1DNE5,reach,3343.710000000894,tangram,close,F1.jpg,W1.jpg,survey-text,42,1147203
testing,3ZGVPD4G6U6A6Q2949ZCQFBD8P8TZI,leaning,3751.0049999982584,tangram,close,K1.jpg,T1.jpg,survey-text,18,143934
testing,30OG32W0SV0E0I6TBQZNW643V1DNE5,offer,3312.2149999979883,tangram,close,H1.jpg,Y1.jpg,survey-text,43,1151019
testing,3ZGVPD4G6U6A6Q2949ZCQFBD8P8TZI,,2201.084999993327,,,,,html-button-response,19,146651
testing,3ZGVPD4G6U6A6Q2949ZCQFBD8P8TZI,jump,2939.9450000055367,tangram,far,E1.jpg,C2.jpg,survey-text,20,150094
testing,3ZGVPD4G6U6A6Q2949ZCQFBD8P8TZI,stand,2815.744999999879,tangram,far,G1.jpg,N1.jpg,survey-text,21,153422
testing,3ZGVPD4G6U6A6Q2949ZCQFBD8P8TZI,straight,6052.0050000050105,tangram,far,H1.jpg,A2.jpg,survey-text,22,159983
testing,3W2LOLRXLC421GQV0JR73LMIGVYKRA,bird,21888.350000000166,familiar,far,sparrow.jpg,squirrel.jpg,survey-text,7,122496
testing,3W2LOLRXLC421GQV0JR73LMIGVYKRA,bear,5621.83000000006,familiar,far,grizzlybear.jpg,lion.jpg,survey-text,8,128624
testing,3ZGVPD4G6U6A6Q2949ZCQFBD8P8TZI,running,6334.644999995362,tangram,far,A1.jpg,D1.jpg,survey-text,23,166830
testing,3W2LOLRXLC421GQV0JR73LMIGVYKRA,fish,2870.085000000021,familiar,far,goldfish.jpg,iguana.jpg,survey-text,9,132006
testing,3ZGVPD4G6U6A6Q2949ZCQFBD8P8TZI,leaning,2382.5550000037765,tangram,far,K1.jpg,V1.jpg,survey-text,24,169719
testing,3W2LOLRXLC421GQV0JR73LMIGVYKRA,,959.0199999997858,,,,,html-button-response,10,133468
testing,3ZGVPD4G6U6A6Q2949ZCQFBD8P8TZI,running,4079.165000002831,tangram,far,F1.jpg,C1.jpg,survey-text,25,174310
testing,3ZGVPD4G6U6A6Q2949ZCQFBD8P8TZI,walking,3785.1450000016484,tangram,far,B1.jpg,O1.jpg,survey-text,26,178598
testing,3W2LOLRXLC421GQV0JR73LMIGVYKRA,man,7578.939999999886,tangram,far,K1.jpg,V1.jpg,survey-text,11,141555
testing,3ZGVPD4G6U6A6Q2949ZCQFBD8P8TZI,giving,2426.930000001448,tangram,far,I1.jpg,R1.jpg,survey-text,27,181534
testing,3ZGVPD4G6U6A6Q2949ZCQFBD8P8TZI,,2415.4600000038045,,,,,html-button-response,28,184464
testing,30OG32W0SV0E0I6TBQZNW643V1DNE5,skip,41716.05500000459,tangram,close,A1.jpg,A2.jpg,survey-text,44,1193239
testing,3W2LOLRXLC421GQV0JR73LMIGVYKRA,statue,7904.674999999785,tangram,far,G1.jpg,N1.jpg,survey-text,12,149968
testing,3ZGVPD4G6U6A6Q2949ZCQFBD8P8TZI,table,5360.5349999998,familiar,isolated,diningtable.jpg,picnictable.jpg,survey-text,29,190334
testing,30OG32W0SV0E0I6TBQZNW643V1DNE5,bend,3869.109999999637,tangram,close,I1.jpg,J1.jpg,survey-text,45,1197613
testing,30OG32W0SV0E0I6TBQZNW643V1DNE5,,2478.349999997532,,,,,html-button-response,46,1200595
testing,3ZGVPD4G6U6A6Q2949ZCQFBD8P8TZI,car,4973.0750000017,familiar,isolated,sedan.jpg,sportscar.jpg,survey-text,30,195815
testing,3W2LOLRXLC421GQV0JR73LMIGVYKRA,stand,8752.160000000003,tangram,far,H1.jpg,A2.jpg,survey-text,13,159230
testing,3ZGVPD4G6U6A6Q2949ZCQFBD8P8TZI,dog,1807.925000000978,familiar,isolated,germanshepherd.jpg,pug.jpg,survey-text,31,198135
testing,3ZGVPD4G6U6A6Q2949ZCQFBD8P8TZI,bird,2424.479999986943,familiar,isolated,sparrow.jpg,eagle.jpg,survey-text,32,201063
testing,30OG32W0SV0E0I6TBQZNW643V1DNE5,small,5944.4150000051595,familiar,isolated,sparrow.jpg,eagle.jpg,survey-text,47,1207045
testing,3ZGVPD4G6U6A6Q2949ZCQFBD8P8TZI,bear,1832.4349999893457,familiar,isolated,grizzlybear.jpg,polarbear.jpg,survey-text,33,203407
testing,30OG32W0SV0E0I6TBQZNW643V1DNE5,colorful,3758.910000004107,familiar,isolated,mnms.jpg,gummybears.jpg,survey-text,48,1211307
testing,3ZGVPD4G6U6A6Q2949ZCQFBD8P8TZI,goldfish,3275.7200000050943,familiar,isolated,goldfish.jpg,swordfish.jpg,survey-text,34,207199
testing,3ZGVPD4G6U6A6Q2949ZCQFBD8P8TZI,candy,2569.9900000035996,familiar,isolated,mnms.jpg,gummybears.jpg,survey-text,35,210271
testing,3ZGVPD4G6U6A6Q2949ZCQFBD8P8TZI,shirt,1620.8350000088103,familiar,isolated,poloshirt.jpg,hawaiishirt.jpg,survey-text,36,212400
testing,3ZGVPD4G6U6A6Q2949ZCQFBD8P8TZI,,3064.814999990631,,,,,html-button-response,37,215980
testing,3ZGVPD4G6U6A6Q2949ZCQFBD8P8TZI,gold,4901.194999998552,familiar,far,goldfish.jpg,iguana.jpg,survey-text,38,221399
testing,3ZGVPD4G6U6A6Q2949ZCQFBD8P8TZI,bear,2013.2199999934528,familiar,far,grizzlybear.jpg,lion.jpg,survey-text,39,223926
testing,3ZGVPD4G6U6A6Q2949ZCQFBD8P8TZI,candy,3271.9749999960186,familiar,far,mnms.jpg,pretzels.jpg,survey-text,40,227711
testing,3ZGVPD4G6U6A6Q2949ZCQFBD8P8TZI,shirt,2158.6950000055367,familiar,far,poloshirt.jpg,dress.jpg,survey-text,41,230375
testing,3ZGVPD4G6U6A6Q2949ZCQFBD8P8TZI,car,2668.5600000055274,familiar,far,sedan.jpg,firetruck.jpg,survey-text,42,233550
testing,3ZWFC4W1UVWRLUYHZ80AN8UD8ZHRFF,,51653.82499998668,,,,,html-button-response,0,51664
testing,3ZGVPD4G6U6A6Q2949ZCQFBD8P8TZI,bird,1684.6799999912037,familiar,far,sparrow.jpg,squirrel.jpg,survey-text,43,235743
testing,3ZGVPD4G6U6A6Q2949ZCQFBD8P8TZI,dog,1602.8200000000652,familiar,far,germanshepherd.jpg,cow.jpg,survey-text,44,237862
testing,3ZWFC4W1UVWRLUYHZ80AN8UD8ZHRFF,,3109.370000020135,,,,,html-button-response,1,55784
testing,3ZGVPD4G6U6A6Q2949ZCQFBD8P8TZI,table,1758.1649999920046,familiar,far,diningtable.jpg,wardrobe.jpg,survey-text,45,240134
testing,3ZGVPD4G6U6A6Q2949ZCQFBD8P8TZI,,1986.0250000056112,,,,,html-button-response,46,242623
testing,3ZGVPD4G6U6A6Q2949ZCQFBD8P8TZI,jumping,6797.565000000759,tangram,isolated,E1.jpg,F1.jpg,survey-text,47,249935
testing,3ZWFC4W1UVWRLUYHZ80AN8UD8ZHRFF,graduate,16778.954999987036,tangram,far,H1.jpg,A2.jpg,survey-text,2,73078
testing,3ZGVPD4G6U6A6Q2949ZCQFBD8P8TZI,running,6289.365000004182,tangram,isolated,F1.jpg,W1.jpg,survey-text,48,256734
testing,3ZGVPD4G6U6A6Q2949ZCQFBD8P8TZI,walking,3268.6200000025565,tangram,isolated,B1.jpg,P1.jpg,survey-text,49,260518
testing,3ZGVPD4G6U6A6Q2949ZCQFBD8P8TZI,sitting,3273.1499999936204,tangram,isolated,G1.jpg,M1.jpg,survey-text,50,264310
testing,3ZWFC4W1UVWRLUYHZ80AN8UD8ZHRFF,service,10103.854999993928,tangram,far,K1.jpg,V1.jpg,survey-text,3,83714
testing,3ZGVPD4G6U6A6Q2949ZCQFBD8P8TZI,giving,2694.3499999906635,tangram,isolated,I1.jpg,J1.jpg,survey-text,51,267511
testing,3ZGVPD4G6U6A6Q2949ZCQFBD8P8TZI,running,2629.354999997304,tangram,isolated,A1.jpg,A2.jpg,survey-text,52,270655
testing,3ZWFC4W1UVWRLUYHZ80AN8UD8ZHRFF,seal,6102.1099999779835,tangram,far,G1.jpg,N1.jpg,survey-text,4,90333
testing,3ZGVPD4G6U6A6Q2949ZCQFBD8P8TZI,leaning,2285.4800000059186,tangram,isolated,K1.jpg,T1.jpg,survey-text,53,273447
testing,3ZGVPD4G6U6A6Q2949ZCQFBD8P8TZI,standing,2365.6749999936437,tangram,isolated,H1.jpg,Y1.jpg,survey-text,54,276327
testing,3W2LOLRXLC421GQV0JR73LMIGVYKRA,fall,84268.35500000016,tangram,far,E1.jpg,C2.jpg,survey-text,14,244008
testing,3W2LOLRXLC421GQV0JR73LMIGVYKRA,reach,4554.2399999999325,tangram,far,I1.jpg,R1.jpg,survey-text,15,249071
testing,3ZWFC4W1UVWRLUYHZ80AN8UD8ZHRFF,skipping,17009.000000020023,tangram,far,A1.jpg,D1.jpg,survey-text,5,107862
testing,3W2LOLRXLC421GQV0JR73LMIGVYKRA,sad,4214.204999999754,tangram,far,B1.jpg,O1.jpg,survey-text,16,253794
testing,3A4TN5196L77TO04C1YF1Y74ODRHCX,,5052.864999976009,,,,,html-button-response,0,5056
testing,3A4TN5196L77TO04C1YF1Y74ODRHCX,,1649.0900000208057,,,,,html-button-response,1,7723
testing,3A4TN5196L77TO04C1YF1Y74ODRHCX,professor,9845.789999992121,tangram,far,H1.jpg,A2.jpg,survey-text,2,18079
testing,3A4TN5196L77TO04C1YF1Y74ODRHCX,parishoner,10919.3699999596,tangram,far,G1.jpg,N1.jpg,survey-text,3,29513
testing,3ZWFC4W1UVWRLUYHZ80AN8UD8ZHRFF,crouching,56208.010000002105,tangram,far,F1.jpg,C1.jpg,survey-text,6,164592
testing,3ZWFC4W1UVWRLUYHZ80AN8UD8ZHRFF,flying,6786.884999950416,tangram,far,E1.jpg,C2.jpg,survey-text,7,171889
testing,3ZWFC4W1UVWRLUYHZ80AN8UD8ZHRFF,sad,5140.755000000354,tangram,far,B1.jpg,O1.jpg,survey-text,8,177552
testing,3ZWFC4W1UVWRLUYHZ80AN8UD8ZHRFF,waiter,12403.255000011995,tangram,far,I1.jpg,R1.jpg,survey-text,9,190481
testing,3ZWFC4W1UVWRLUYHZ80AN8UD8ZHRFF,,4242.430000042077,,,,,html-button-response,10,195241
testing,3ZWFC4W1UVWRLUYHZ80AN8UD8ZHRFF,seal,6341.13499999512,tangram,isolated,G1.jpg,M1.jpg,survey-text,11,202102
testing,3A4TN5196L77TO04C1YF1Y74ODRHCX,,25167.639999999665,,,,,html-button-response,0,25171
testing,3ZWFC4W1UVWRLUYHZ80AN8UD8ZHRFF,flying,6445.030000002589,tangram,isolated,E1.jpg,F1.jpg,survey-text,12,209056
testing,3A4TN5196L77TO04C1YF1Y74ODRHCX,,5645.170000032522,,,,,html-button-response,1,31834
testing,3ZWFC4W1UVWRLUYHZ80AN8UD8ZHRFF,service,7470.900000014808,tangram,isolated,H1.jpg,Y1.jpg,survey-text,13,217043
testing,3ZWFC4W1UVWRLUYHZ80AN8UD8ZHRFF,skipping,6951.2349999859,tangram,isolated,A1.jpg,A2.jpg,survey-text,14,224510
testing,3ZWFC4W1UVWRLUYHZ80AN8UD8ZHRFF,sad,4073.804999992717,tangram,isolated,B1.jpg,P1.jpg,survey-text,15,229101
testing,3ZWFC4W1UVWRLUYHZ80AN8UD8ZHRFF,crouching,7450.024999969173,tangram,isolated,F1.jpg,W1.jpg,survey-text,16,237059
testing,3ZWFC4W1UVWRLUYHZ80AN8UD8ZHRFF,waiter,7528.165000025183,tangram,isolated,I1.jpg,J1.jpg,survey-text,17,245120
testing,3A4TN5196L77TO04C1YF1Y74ODRHCX,holding,42478.549999999814,tangram,close,I1.jpg,J1.jpg,survey-text,2,74820
testing,3ZWFC4W1UVWRLUYHZ80AN8UD8ZHRFF,service,11421.154999989085,tangram,isolated,K1.jpg,T1.jpg,survey-text,18,257058
testing,3ZWFC4W1UVWRLUYHZ80AN8UD8ZHRFF,,2439.8099999525584,,,,,html-button-response,19,260004
testing,3ZWFC4W1UVWRLUYHZ80AN8UD8ZHRFF,bird,7742.194999998901,familiar,close,sparrow.jpg,eagle.jpg,survey-text,20,268269
testing,3ZWFC4W1UVWRLUYHZ80AN8UD8ZHRFF,dog,8525.179999996908,familiar,close,germanshepherd.jpg,pug.jpg,survey-text,21,277320
testing,3ZWFC4W1UVWRLUYHZ80AN8UD8ZHRFF,candy,7208.790000004228,familiar,close,mnms.jpg,gummybears.jpg,survey-text,22,285044
testing,3ZWFC4W1UVWRLUYHZ80AN8UD8ZHRFF,shirt,5129.284999973606,familiar,close,poloshirt.jpg,hawaiishirt.jpg,survey-text,23,290690
testing,3ZWFC4W1UVWRLUYHZ80AN8UD8ZHRFF,bear,6013.670000014827,familiar,close,grizzlybear.jpg,polarbear.jpg,survey-text,24,297213
testing,3A4TN5196L77TO04C1YF1Y74ODRHCX,male,43129.76999999955,tangram,close,A1.jpg,A2.jpg,survey-text,3,118461
testing,3ZWFC4W1UVWRLUYHZ80AN8UD8ZHRFF,table,6615.890000015497,familiar,close,diningtable.jpg,picnictable.jpg,survey-text,25,304346
testing,3ZWFC4W1UVWRLUYHZ80AN8UD8ZHRFF,car,3135.1350000477396,familiar,close,sedan.jpg,sportscar.jpg,survey-text,26,308000
testing,3ZWFC4W1UVWRLUYHZ80AN8UD8ZHRFF,goldfish,6230.454999953508,familiar,close,goldfish.jpg,swordfish.jpg,survey-text,27,314750
testing,3A4TN5196L77TO04C1YF1Y74ODRHCX,bending,27738.270000030752,tangram,close,K1.jpg,T1.jpg,survey-text,4,146710
testing,3A4TN5196L77TO04C1YF1Y74ODRHCX,upward,50788.33000001032,tangram,close,F1.jpg,W1.jpg,survey-text,5,198008
testing,3A4TN5196L77TO04C1YF1Y74ODRHCX,,2879.475000081584,,,,,html-button-response,0,2905
testing,3A4TN5196L77TO04C1YF1Y74ODRHCX,,2655.490000033751,,,,,html-button-response,1,6569
testing,3YW4XOSQKRASB7WQW3GU3HD3EO2U1L,,568066.8999999762,,,,,html-button-response,10,774396
testing,3A4TN5196L77TO04C1YF1Y74ODRHCX,Table,7978.469999972731,familiar,isolated,diningtable.jpg,picnictable.jpg,survey-text,2,15063
testing,3ZWFC4W1UVWRLUYHZ80AN8UD8ZHRFF,,163270.7249999512,,,,,html-button-response,28,478526
testing,3A4TN5196L77TO04C1YF1Y74ODRHCX,Bear,4235.395000083372,familiar,isolated,grizzlybear.jpg,polarbear.jpg,survey-text,3,19811
testing,3YW4XOSQKRASB7WQW3GU3HD3EO2U1L,Shapes,8900.200000032783,tangram,isolated,I1.jpg,J1.jpg,survey-text,11,783823
testing,3ZWFC4W1UVWRLUYHZ80AN8UD8ZHRFF,car,5954.739999957383,familiar,isolated,sedan.jpg,sportscar.jpg,survey-text,29,485007
testing,3A4TN5196L77TO04C1YF1Y74ODRHCX,Dog,8193.28000000678,familiar,isolated,germanshepherd.jpg,pug.jpg,survey-text,4,28516
testing,3ZWFC4W1UVWRLUYHZ80AN8UD8ZHRFF,bear,4257.259999983944,familiar,isolated,grizzlybear.jpg,polarbear.jpg,survey-text,30,489780
testing,3YW4XOSQKRASB7WQW3GU3HD3EO2U1L,sulking,6936.4000000059605,tangram,isolated,B1.jpg,P1.jpg,survey-text,12,791278
testing,3ZWFC4W1UVWRLUYHZ80AN8UD8ZHRFF,candy,6120.360000000801,familiar,isolated,mnms.jpg,gummybears.jpg,survey-text,31,496435
testing,3YW4XOSQKRASB7WQW3GU3HD3EO2U1L,beg,5624.000000068918,tangram,isolated,K1.jpg,T1.jpg,survey-text,13,797435
testing,3ZWFC4W1UVWRLUYHZ80AN8UD8ZHRFF,dog,4149.280000012368,familiar,isolated,germanshepherd.jpg,pug.jpg,survey-text,32,501101
testing,3A4TN5196L77TO04C1YF1Y74ODRHCX,Fish,17041.005000006407,familiar,isolated,goldfish.jpg,swordfish.jpg,survey-text,5,46070
testing,3ZWFC4W1UVWRLUYHZ80AN8UD8ZHRFF,shirt,4680.025000008754,familiar,isolated,poloshirt.jpg,hawaiishirt.jpg,survey-text,33,506303
testing,3YW4XOSQKRASB7WQW3GU3HD3EO2U1L,pointing,9742.000000085682,tangram,isolated,H1.jpg,Y1.jpg,survey-text,14,807709
testing,3A4TN5196L77TO04C1YF1Y74ODRHCX,Sparrow,5144.815000006929,familiar,isolated,sparrow.jpg,eagle.jpg,survey-text,6,51726
testing,3ZWFC4W1UVWRLUYHZ80AN8UD8ZHRFF,bird,4732.849999971222,familiar,isolated,sparrow.jpg,eagle.jpg,survey-text,34,511562
testing,3YW4XOSQKRASB7WQW3GU3HD3EO2U1L,dancing,8509.300000034273,tangram,isolated,F1.jpg,W1.jpg,survey-text,15,816748
testing,3A4TN5196L77TO04C1YF1Y74ODRHCX,shirt,4524.140000110492,familiar,isolated,poloshirt.jpg,hawaiishirt.jpg,survey-text,7,56759
testing,3ZWFC4W1UVWRLUYHZ80AN8UD8ZHRFF,table,7561.120000027586,familiar,isolated,diningtable.jpg,picnictable.jpg,survey-text,35,519641
testing,3A4TN5196L77TO04C1YF1Y74ODRHCX,Gems,8606.954999966547,familiar,isolated,mnms.jpg,gummybears.jpg,survey-text,8,65877
testing,3ZWFC4W1UVWRLUYHZ80AN8UD8ZHRFF,goldfish,5466.874999983702,familiar,isolated,goldfish.jpg,swordfish.jpg,survey-text,36,525629
testing,3YW4XOSQKRASB7WQW3GU3HD3EO2U1L,sitting,8913.799999980256,tangram,isolated,G1.jpg,M1.jpg,survey-text,16,826198
testing,3ZWFC4W1UVWRLUYHZ80AN8UD8ZHRFF,,1966.4599999669008,,,,,html-button-response,37,528104
testing,3A4TN5196L77TO04C1YF1Y74ODRHCX,Car,5798.165000043809,familiar,isolated,sedan.jpg,sportscar.jpg,survey-text,9,72186
testing,3YW4XOSQKRASB7WQW3GU3HD3EO2U1L,jumping,5925.400000065565,tangram,isolated,E1.jpg,F1.jpg,survey-text,17,832642
testing,3A4TN5196L77TO04C1YF1Y74ODRHCX,,3730.229999870062,,,,,html-button-response,10,76423
testing,3ZWFC4W1UVWRLUYHZ80AN8UD8ZHRFF,shirt,8793.9100000076,familiar,far,poloshirt.jpg,dress.jpg,survey-text,38,537415
testing,3A4TN5196L77TO04C1YF1Y74ODRHCX,T shirt,5921.589999925345,familiar,close,poloshirt.jpg,hawaiishirt.jpg,survey-text,11,82858
testing,3ZWFC4W1UVWRLUYHZ80AN8UD8ZHRFF,bird,6525.7199999759905,familiar,far,sparrow.jpg,squirrel.jpg,survey-text,39,544468
testing,3A4TN5196L77TO04C1YF1Y74ODRHCX,Dog,3750.5499999970198,familiar,close,germanshepherd.jpg,pug.jpg,survey-text,12,87119
testing,3ZWFC4W1UVWRLUYHZ80AN8UD8ZHRFF,car,4425.409999967087,familiar,far,sedan.jpg,firetruck.jpg,survey-text,40,549418
testing,3A4TN5196L77TO04C1YF1Y74ODRHCX,Fish,3921.4250000659376,familiar,close,goldfish.jpg,swordfish.jpg,survey-text,13,91552
testing,3YW4XOSQKRASB7WQW3GU3HD3EO2U1L,skating,19736.499999882653,tangram,isolated,A1.jpg,A2.jpg,survey-text,18,852920
testing,3ZWFC4W1UVWRLUYHZ80AN8UD8ZHRFF,table,4962.165000033565,familiar,far,diningtable.jpg,wardrobe.jpg,survey-text,41,554895
testing,3ZWFC4W1UVWRLUYHZ80AN8UD8ZHRFF,goldfish,5594.554999959655,familiar,far,goldfish.jpg,iguana.jpg,survey-text,42,560998
testing,3A4TN5196L77TO04C1YF1Y74ODRHCX,car,9633.380000013858,familiar,close,sedan.jpg,sportscar.jpg,survey-text,14,101696
testing,3A4TN5196L77TO04C1YF1Y74ODRHCX,Bear,3726.32999997586,familiar,close,grizzlybear.jpg,polarbear.jpg,survey-text,15,105933
testing,3ZWFC4W1UVWRLUYHZ80AN8UD8ZHRFF,bear,4128.364999953192,familiar,far,grizzlybear.jpg,lion.jpg,survey-text,43,565644
testing,3ZWFC4W1UVWRLUYHZ80AN8UD8ZHRFF,dog,4611.100000038277,familiar,far,germanshepherd.jpg,cow.jpg,survey-text,44,570777
testing,3A4TN5196L77TO04C1YF1Y74ODRHCX,Gems,5440.410000039265,familiar,close,mnms.jpg,gummybears.jpg,survey-text,16,111885
testing,3ZWFC4W1UVWRLUYHZ80AN8UD8ZHRFF,candy,7182.159999967553,familiar,far,mnms.jpg,pretzels.jpg,survey-text,45,578485
testing,3A4TN5196L77TO04C1YF1Y74ODRHCX,Sparrow,7055.6600000709295,familiar,close,sparrow.jpg,eagle.jpg,survey-text,17,119452
testing,3ZWFC4W1UVWRLUYHZ80AN8UD8ZHRFF,,1312.9600000102073,,,,,html-button-response,46,580304
testing,3QL2OFSM977Z3KMFFZTS6I40AP0NCC,,1.7716556150000542e+06,,,,,html-button-response,0,1771732
testing,3A4TN5196L77TO04C1YF1Y74ODRHCX,Table,3998.6149999313056,familiar,close,diningtable.jpg,picnictable.jpg,survey-text,18,123960
testing,3A4TN5196L77TO04C1YF1Y74ODRHCX,,1512.2700000647455,,,,,html-button-response,19,125979
testing,3QL2OFSM977Z3KMFFZTS6I40AP0NCC,,1900.0750000122935,,,,,html-button-response,1,1774645
testing,3ZWFC4W1UVWRLUYHZ80AN8UD8ZHRFF,flying,6248.979999974836,tangram,close,E1.jpg,F1.jpg,survey-text,47,587076
testing,3QL2OFSM977Z3KMFFZTS6I40AP0NCC,Eat,6751.455000136048,familiar,far,mnms.jpg,pretzels.jpg,survey-text,2,1781921
testing,3ZWFC4W1UVWRLUYHZ80AN8UD8ZHRFF,service,12570.285000023432,tangram,close,H1.jpg,Y1.jpg,survey-text,48,600155
testing,3QL2OFSM977Z3KMFFZTS6I40AP0NCC,Animal,11511.79499994032,familiar,far,goldfish.jpg,iguana.jpg,survey-text,3,1793946
testing,3ZWFC4W1UVWRLUYHZ80AN8UD8ZHRFF,service,9080.125000036787,tangram,close,K1.jpg,T1.jpg,survey-text,49,609760
testing,3QL2OFSM977Z3KMFFZTS6I40AP0NCC,Dress,3837.16500014998,familiar,far,poloshirt.jpg,dress.jpg,survey-text,4,1798292
testing,3ZWFC4W1UVWRLUYHZ80AN8UD8ZHRFF,sad,3519.030000024941,tangram,close,B1.jpg,P1.jpg,survey-text,50,613805
testing,3E337GFOLAXCKW2KHLPBW9PF8HSNGM,,4115.290000103414,,,,,html-button-response,0,4123
testing,3QL2OFSM977Z3KMFFZTS6I40AP0NCC,Animal,7823.695000028238,familiar,far,germanshepherd.jpg,cow.jpg,survey-text,5,1806624
testing,3ZWFC4W1UVWRLUYHZ80AN8UD8ZHRFF,waiter,5464.380000019446,tangram,close,I1.jpg,J1.jpg,survey-text,51,619802
testing,3E337GFOLAXCKW2KHLPBW9PF8HSNGM,,1855.8000000193715,,,,,html-button-response,1,6993
testing,3QL2OFSM977Z3KMFFZTS6I40AP0NCC,birds,5110.245000105351,familiar,far,sparrow.jpg,squirrel.jpg,survey-text,6,1812243
testing,3ZWFC4W1UVWRLUYHZ80AN8UD8ZHRFF,seal,4561.52500002645,tangram,close,G1.jpg,M1.jpg,survey-text,52,624880
testing,3E337GFOLAXCKW2KHLPBW9PF8HSNGM,MAN,8478.40499994345,tangram,isolated,E1.jpg,F1.jpg,survey-text,2,16253
testing,3ZWFC4W1UVWRLUYHZ80AN8UD8ZHRFF,skipping,5967.9050000268035,tangram,close,A1.jpg,A2.jpg,survey-text,53,631361
testing,30OG32W0SV0E0I6TBQZNW643V1DNE5,strong,610237.9450000008,familiar,isolated,germanshepherd.jpg,pug.jpg,survey-text,49,1822049
testing,3E337GFOLAXCKW2KHLPBW9PF8HSNGM,BIRD,4332.515000132844,tangram,isolated,F1.jpg,W1.jpg,survey-text,3,21106
testing,3QL2OFSM977Z3KMFFZTS6I40AP0NCC,trasporter,11013.419999973848,familiar,far,sedan.jpg,firetruck.jpg,survey-text,7,1823781
testing,30OG32W0SV0E0I6TBQZNW643V1DNE5,blue,2947.6100000028964,familiar,isolated,poloshirt.jpg,hawaiishirt.jpg,survey-text,50,1825500
testing,3ZWFC4W1UVWRLUYHZ80AN8UD8ZHRFF,crouching,7055.654999974649,tangram,close,F1.jpg,W1.jpg,survey-text,54,638930
testing,3E337GFOLAXCKW2KHLPBW9PF8HSNGM,DOG,4784.0350000187755,tangram,isolated,K1.jpg,T1.jpg,survey-text,4,26399
testing,30OG32W0SV0E0I6TBQZNW643V1DNE5,bear,3767.9599999974016,familiar,isolated,grizzlybear.jpg,polarbear.jpg,survey-text,51,1829772
testing,3QL2OFSM977Z3KMFFZTS6I40AP0NCC,Tables,5600.875000003725,familiar,far,diningtable.jpg,wardrobe.jpg,survey-text,8,1829889
testing,3E337GFOLAXCKW2KHLPBW9PF8HSNGM,WOMAN,5045.9100001025945,tangram,isolated,I1.jpg,J1.jpg,survey-text,5,31956
testing,30OG32W0SV0E0I6TBQZNW643V1DNE5,fish,3816.2250000021886,familiar,isolated,goldfish.jpg,swordfish.jpg,survey-text,52,1834092
testing,3QL2OFSM977Z3KMFFZTS6I40AP0NCC,Animal,5485.694999806583,familiar,far,grizzlybear.jpg,lion.jpg,survey-text,9,1835887
testing,3QL2OFSM977Z3KMFFZTS6I40AP0NCC,,1384.8749999888241,,,,,html-button-response,10,1837787
testing,30OG32W0SV0E0I6TBQZNW643V1DNE5,table,4337.050000002142,familiar,isolated,diningtable.jpg,picnictable.jpg,survey-text,53,1838932
testing,3E337GFOLAXCKW2KHLPBW9PF8HSNGM,SIT,5829.814999829978,tangram,isolated,G1.jpg,M1.jpg,survey-text,6,38297
testing,30OG32W0SV0E0I6TBQZNW643V1DNE5,car,2952.4200000013225,familiar,isolated,sedan.jpg,sportscar.jpg,survey-text,54,1842388
testing,3E337GFOLAXCKW2KHLPBW9PF8HSNGM,WALK,3856.9499999284744,tangram,isolated,B1.jpg,P1.jpg,survey-text,7,42665
testing,3QL2OFSM977Z3KMFFZTS6I40AP0NCC,Art,8057.925000088289,tangram,close,E1.jpg,F1.jpg,survey-text,11,1846358
testing,3ZAK8W07I53S4IB80KCUPCUT9WWU0I,,1.6471547750000027e+06,,,,,html-button-response,0,1647157
testing,3ZAK8W07I53S4IB80KCUPCUT9WWU0I,,1842.339999973774,,,,,html-button-response,1,1650006
testing,3ZAK8W07I53S4IB80KCUPCUT9WWU0I,seal,3867.7649999735877,tangram,close,G1.jpg,M1.jpg,survey-text,2,1654401
testing,3QL2OFSM977Z3KMFFZTS6I40AP0NCC,Man,14355.264999903738,tangram,close,K1.jpg,T1.jpg,survey-text,12,1861221
testing,3ZAK8W07I53S4IB80KCUPCUT9WWU0I,priest,2969.145000039134,tangram,close,H1.jpg,Y1.jpg,survey-text,3,1657874
testing,3ZAK8W07I53S4IB80KCUPCUT9WWU0I,runner,2509.790000040084,tangram,close,A1.jpg,A2.jpg,survey-text,4,1660907
testing,3ZAK8W07I53S4IB80KCUPCUT9WWU0I,skyward,6487.150000000838,tangram,close,F1.jpg,W1.jpg,survey-text,5,1667897
testing,3QL2OFSM977Z3KMFFZTS6I40AP0NCC,walk,10941.264999797568,tangram,close,A1.jpg,A2.jpg,survey-text,13,1872690
testing,3ZAK8W07I53S4IB80KCUPCUT9WWU0I,jumping,2097.8050000267103,tangram,close,E1.jpg,F1.jpg,survey-text,6,1670501
testing,3ZAK8W07I53S4IB80KCUPCUT9WWU0I,sad,2197.534999984782,tangram,close,B1.jpg,P1.jpg,survey-text,7,1673213
testing,3QL2OFSM977Z3KMFFZTS6I40AP0NCC,dance,8638.984999852255,tangram,close,F1.jpg,W1.jpg,survey-text,14,1881854
testing,3ZAK8W07I53S4IB80KCUPCUT9WWU0I,praying,4334.72000004258,tangram,close,K1.jpg,T1.jpg,survey-text,8,1678053
testing,3ZAK8W07I53S4IB80KCUPCUT9WWU0I,offering,3085.0349999964237,tangram,close,I1.jpg,J1.jpg,survey-text,9,1681644
testing,3ZAK8W07I53S4IB80KCUPCUT9WWU0I,,2167.9449999937788,,,,,html-button-response,10,1684322
testing,3ZAK8W07I53S4IB80KCUPCUT9WWU0I,goldfish,2139.770000008866,familiar,close,goldfish.jpg,swordfish.jpg,survey-text,11,1686972
testing,3QL2OFSM977Z3KMFFZTS6I40AP0NCC,standing man,8723.165000090376,tangram,close,H1.jpg,Y1.jpg,survey-text,15,1891442
testing,3ZAK8W07I53S4IB80KCUPCUT9WWU0I,bear,1759.9250000203028,familiar,close,grizzlybear.jpg,polarbear.jpg,survey-text,12,1689243
testing,3QL2OFSM977Z3KMFFZTS6I40AP0NCC,sad,5112.44500009343,tangram,close,B1.jpg,P1.jpg,survey-text,16,1897062
testing,3ZAK8W07I53S4IB80KCUPCUT9WWU0I,dog,3443.7549999565817,familiar,close,germanshepherd.jpg,pug.jpg,survey-text,13,1693193
testing,3ZAK8W07I53S4IB80KCUPCUT9WWU0I,candy,2518.4149999986403,familiar,close,mnms.jpg,gummybears.jpg,survey-text,14,1696220
testing,3ZAK8W07I53S4IB80KCUPCUT9WWU0I,solid,4955.799999996088,familiar,close,poloshirt.jpg,hawaiishirt.jpg,survey-text,15,1701683
testing,3E337GFOLAXCKW2KHLPBW9PF8HSNGM,STAND,63627.444999990985,tangram,isolated,H1.jpg,Y1.jpg,survey-text,8,106815
testing,3QL2OFSM977Z3KMFFZTS6I40AP0NCC,beggar,12242.860000114888,tangram,close,I1.jpg,J1.jpg,survey-text,17,1909812
testing,3ZAK8W07I53S4IB80KCUPCUT9WWU0I,dining,5555.289999989327,familiar,close,diningtable.jpg,picnictable.jpg,survey-text,16,1707747
testing,3E337GFOLAXCKW2KHLPBW9PF8HSNGM,RUN,4936.184999998659,tangram,isolated,A1.jpg,A2.jpg,survey-text,9,112260
testing,3ZAK8W07I53S4IB80KCUPCUT9WWU0I,honda,2516.62499998929,familiar,close,sedan.jpg,sportscar.jpg,survey-text,17,1710771
testing,3ZAK8W07I53S4IB80KCUPCUT9WWU0I,sparrow,3709.3600000371225,familiar,close,sparrow.jpg,eagle.jpg,survey-text,18,1714989
testing,3E337GFOLAXCKW2KHLPBW9PF8HSNGM,,6828.20999994874,,,,,html-button-response,10,119595
testing,3ZAK8W07I53S4IB80KCUPCUT9WWU0I,,2315.935000020545,,,,,html-button-response,19,1717824
testing,3QL2OFSM977Z3KMFFZTS6I40AP0NCC,Sad,12243.514999980107,tangram,close,G1.jpg,M1.jpg,survey-text,18,1922566
testing,3QL2OFSM977Z3KMFFZTS6I40AP0NCC,,3356.6349998582155,,,,,html-button-response,19,1926429
testing,3ZAK8W07I53S4IB80KCUPCUT9WWU0I,balance,5830.264999996871,tangram,far,A1.jpg,D1.jpg,survey-text,20,1724171
testing,3E337GFOLAXCKW2KHLPBW9PF8HSNGM,STAND,8701.830000150949,tangram,close,H1.jpg,Y1.jpg,survey-text,11,128812
testing,3ZAK8W07I53S4IB80KCUPCUT9WWU0I,sad,2488.725000002887,tangram,far,B1.jpg,O1.jpg,survey-text,21,1727162
testing,3QL2OFSM977Z3KMFFZTS6I40AP0NCC,running,5897.050000028685,tangram,far,G1.jpg,N1.jpg,survey-text,20,1932838
testing,3ZAK8W07I53S4IB80KCUPCUT9WWU0I,offering,3480.264999961946,tangram,far,I1.jpg,R1.jpg,survey-text,22,1731152
testing,3ZAK8W07I53S4IB80KCUPCUT9WWU0I,priest,3194.5700000505894,tangram,far,H1.jpg,A2.jpg,survey-text,23,1734863
testing,3QL2OFSM977Z3KMFFZTS6I40AP0NCC,happy,8277.09999983199,tangram,far,E1.jpg,C2.jpg,survey-text,21,1941626
testing,3ZAK8W07I53S4IB80KCUPCUT9WWU0I,praying,3035.9150000149384,tangram,far,K1.jpg,V1.jpg,survey-text,24,1738413
testing,3E337GFOLAXCKW2KHLPBW9PF8HSNGM,RUN,14268.904999829829,tangram,close,F1.jpg,W1.jpg,survey-text,12,143598
testing,3QL2OFSM977Z3KMFFZTS6I40AP0NCC,sad,3419.3649999797344,tangram,far,B1.jpg,O1.jpg,survey-text,22,1945559
testing,3ZAK8W07I53S4IB80KCUPCUT9WWU0I,skyward,2779.6199999866076,tangram,far,F1.jpg,C1.jpg,survey-text,25,1741706
testing,3ZAK8W07I53S4IB80KCUPCUT9WWU0I,jumping,2399.650000035763,tangram,far,E1.jpg,C2.jpg,survey-text,26,1744616
testing,3E337GFOLAXCKW2KHLPBW9PF8HSNGM,SIT,4394.410000182688,tangram,close,G1.jpg,M1.jpg,survey-text,13,148501
testing,3ZAK8W07I53S4IB80KCUPCUT9WWU0I,kneeling,3410.759999998845,tangram,far,G1.jpg,N1.jpg,survey-text,27,1748541
testing,3QL2OFSM977Z3KMFFZTS6I40AP0NCC,walk,8538.605000125244,tangram,far,A1.jpg,D1.jpg,survey-text,23,1954605
testing,3ZAK8W07I53S4IB80KCUPCUT9WWU0I,,1854.189999983646,,,,,html-button-response,28,1750900
testing,3E337GFOLAXCKW2KHLPBW9PF8HSNGM,DOG,8047.895000083372,tangram,close,K1.jpg,T1.jpg,survey-text,14,158332
testing,3ZAK8W07I53S4IB80KCUPCUT9WWU0I,praying,4530.979999981355,tangram,isolated,K1.jpg,T1.jpg,survey-text,29,1755940
testing,3ZAK8W07I53S4IB80KCUPCUT9WWU0I,priest,2012.3149999999441,tangram,isolated,H1.jpg,Y1.jpg,survey-text,30,1758470
testing,3E337GFOLAXCKW2KHLPBW9PF8HSNGM,WALK,4484.399999957532,tangram,close,B1.jpg,P1.jpg,survey-text,15,163342
testing,3E337GFOLAXCKW2KHLPBW9PF8HSNGM,WALK,6253.34500009194,tangram,close,A1.jpg,A2.jpg,survey-text,16,170120
testing,3QL2OFSM977Z3KMFFZTS6I40AP0NCC,take anyone,17910.57000006549,tangram,far,H1.jpg,A2.jpg,survey-text,24,1973033
testing,3E337GFOLAXCKW2KHLPBW9PF8HSNGM,WOMEN,5817.890000063926,tangram,close,I1.jpg,J1.jpg,survey-text,17,176464
testing,3QL2OFSM977Z3KMFFZTS6I40AP0NCC,run,5122.995000099763,tangram,far,K1.jpg,V1.jpg,survey-text,25,1978667
testing,3E337GFOLAXCKW2KHLPBW9PF8HSNGM,FLY,6084.73000000231,tangram,close,E1.jpg,F1.jpg,survey-text,18,184224
testing,3E337GFOLAXCKW2KHLPBW9PF8HSNGM,,4155.0200001802295,,,,,html-button-response,19,188900
testing,3QL2OFSM977Z3KMFFZTS6I40AP0NCC,please,11427.625000011176,tangram,far,F1.jpg,C1.jpg,survey-text,26,1991488
testing,3E337GFOLAXCKW2KHLPBW9PF8HSNGM,DOG,5994.674999965355,familiar,far,germanshepherd.jpg,cow.jpg,survey-text,20,195407
testing,3QL2OFSM977Z3KMFFZTS6I40AP0NCC,run,5178.895000135526,tangram,far,I1.jpg,R1.jpg,survey-text,27,1997176
testing,3QL2OFSM977Z3KMFFZTS6I40AP0NCC,,1777.0550001878291,,,,,html-button-response,28,1999464
testing,3E337GFOLAXCKW2KHLPBW9PF8HSNGM,TABLE,4986.255000112578,familiar,far,diningtable.jpg,wardrobe.jpg,survey-text,21,200919
testing,3QL2OFSM977Z3KMFFZTS6I40AP0NCC,car,4080.6050000246614,familiar,isolated,sedan.jpg,sportscar.jpg,survey-text,29,2004063
testing,3E337GFOLAXCKW2KHLPBW9PF8HSNGM,BIRD,3872.495000017807,familiar,far,sparrow.jpg,squirrel.jpg,survey-text,22,205323
testing,3QL2OFSM977Z3KMFFZTS6I40AP0NCC,dog,3845.3899999149144,familiar,isolated,germanshepherd.jpg,pug.jpg,survey-text,30,2008415
testing,3E337GFOLAXCKW2KHLPBW9PF8HSNGM,SHIRT,3877.1750000305474,familiar,far,poloshirt.jpg,dress.jpg,survey-text,23,209726
testing,3QL2OFSM977Z3KMFFZTS6I40AP0NCC,table,3965.139999985695,familiar,isolated,diningtable.jpg,picnictable.jpg,survey-text,31,2012889
testing,3E337GFOLAXCKW2KHLPBW9PF8HSNGM,CAR,3232.8600001055747,familiar,far,sedan.jpg,firetruck.jpg,survey-text,24,213480
testing,3QL2OFSM977Z3KMFFZTS6I40AP0NCC,gems,5550.93999998644,familiar,isolated,mnms.jpg,gummybears.jpg,survey-text,32,2018956
testing,3ZAK8W07I53S4IB80KCUPCUT9WWU0I,skyward,59224.010000005364,tangram,isolated,F1.jpg,W1.jpg,survey-text,31,1818200
testing,3ZAK8W07I53S4IB80KCUPCUT9WWU0I,balance,3862.4600000330247,tangram,isolated,A1.jpg,A2.jpg,survey-text,32,1822578
testing,3QL2OFSM977Z3KMFFZTS6I40AP0NCC,t shirt,7639.309999998659,familiar,isolated,poloshirt.jpg,hawaiishirt.jpg,survey-text,33,2027108
testing,3E337GFOLAXCKW2KHLPBW9PF8HSNGM,BEAR,11770.309999817982,familiar,far,grizzlybear.jpg,lion.jpg,survey-text,25,225777
testing,3E337GFOLAXCKW2KHLPBW9PF8HSNGM,GEMS,5963.35000009276,familiar,far,mnms.jpg,pretzels.jpg,survey-text,26,232251
testing,3QL2OFSM977Z3KMFFZTS6I40AP0NCC,Animal,6672.69999999553,familiar,isolated,grizzlybear.jpg,polarbear.jpg,survey-text,34,2034296
testing,3E337GFOLAXCKW2KHLPBW9PF8HSNGM,FISH,4409.979999996722,familiar,far,goldfish.jpg,iguana.jpg,survey-text,27,237175
testing,3QL2OFSM977Z3KMFFZTS6I40AP0NCC,bird,3973.5850000288337,familiar,isolated,sparrow.jpg,eagle.jpg,survey-text,35,2038776
testing,3E337GFOLAXCKW2KHLPBW9PF8HSNGM,,1211.8949999567121,,,,,html-button-response,28,238904
testing,3ZAK8W07I53S4IB80KCUPCUT9WWU0I,offering,15542.669999995269,tangram,isolated,I1.jpg,J1.jpg,survey-text,33,1838635
testing,3QL2OFSM977Z3KMFFZTS6I40AP0NCC,fish,3872.019999893382,familiar,isolated,goldfish.jpg,swordfish.jpg,survey-text,36,2043160
testing,3E337GFOLAXCKW2KHLPBW9PF8HSNGM,CAR,3463.6900001205504,familiar,close,sedan.jpg,sportscar.jpg,survey-text,29,243137
testing,3QL2OFSM977Z3KMFFZTS6I40AP0NCC,,2053.6299999803305,,,,,html-button-response,37,2045718
testing,3ZAK8W07I53S4IB80KCUPCUT9WWU0I,depressed,3155.670000007376,tangram,isolated,B1.jpg,P1.jpg,survey-text,34,1842305
testing,3E337GFOLAXCKW2KHLPBW9PF8HSNGM,DOG,3773.689999943599,familiar,close,germanshepherd.jpg,pug.jpg,survey-text,30,247434
testing,3QL2OFSM977Z3KMFFZTS6I40AP0NCC,Animal,6717.1549999620765,familiar,close,grizzlybear.jpg,polarbear.jpg,survey-text,38,2052963
testing,3QL2OFSM977Z3KMFFZTS6I40AP0NCC,table,4380.099999951199,familiar,close,diningtable.jpg,picnictable.jpg,survey-text,39,2057852
testing,3QL2OFSM977Z3KMFFZTS6I40AP0NCC,dog,4749.454999808222,familiar,close,germanshepherd.jpg,pug.jpg,survey-text,40,2063112
testing,3E337GFOLAXCKW2KHLPBW9PF8HSNGM,BEAR,13881.009999895468,familiar,close,grizzlybear.jpg,polarbear.jpg,survey-text,31,261943
testing,3QL2OFSM977Z3KMFFZTS6I40AP0NCC,fish,4161.644999869168,familiar,close,goldfish.jpg,swordfish.jpg,survey-text,41,2067796
testing,3E337GFOLAXCKW2KHLPBW9PF8HSNGM,FISH,4638.980000047013,familiar,close,goldfish.jpg,swordfish.jpg,survey-text,32,267101
testing,3E337GFOLAXCKW2KHLPBW9PF8HSNGM,GEMS,4364.319999935105,familiar,close,mnms.jpg,gummybears.jpg,survey-text,33,271983
testing,3QL2OFSM977Z3KMFFZTS6I40AP0NCC,gems,5309.8100000061095,familiar,close,mnms.jpg,gummybears.jpg,survey-text,42,2073614
testing,3QL2OFSM977Z3KMFFZTS6I40AP0NCC,bird,3870.2549999579787,familiar,close,sparrow.jpg,eagle.jpg,survey-text,43,2078002
testing,3E337GFOLAXCKW2KHLPBW9PF8HSNGM,TABLE,8424.024999840185,familiar,close,diningtable.jpg,picnictable.jpg,survey-text,34,280918
testing,3E337GFOLAXCKW2KHLPBW9PF8HSNGM,BIRD,4374.264999991283,familiar,close,sparrow.jpg,eagle.jpg,survey-text,35,285812
testing,3QL2OFSM977Z3KMFFZTS6I40AP0NCC,t shirt,12662.800000049174,familiar,close,poloshirt.jpg,hawaiishirt.jpg,survey-text,44,2091173
testing,3E337GFOLAXCKW2KHLPBW9PF8HSNGM,BLUE SHIRT,5901.134999934584,familiar,close,poloshirt.jpg,hawaiishirt.jpg,survey-text,36,292320
testing,3QL2OFSM977Z3KMFFZTS6I40AP0NCC,car,3363.63000003621,familiar,close,sedan.jpg,sportscar.jpg,survey-text,45,2095060
testing,3E337GFOLAXCKW2KHLPBW9PF8HSNGM,,1227.754999883473,,,,,html-button-response,37,294057
testing,3QL2OFSM977Z3KMFFZTS6I40AP0NCC,,1345.8950000349432,,,,,html-button-response,46,2096938
testing,3QL2OFSM977Z3KMFFZTS6I40AP0NCC,enjoy,8107.27999988012,tangram,isolated,E1.jpg,F1.jpg,survey-text,47,2105560
testing,3QL2OFSM977Z3KMFFZTS6I40AP0NCC,sad,4265.340000158176,tangram,isolated,G1.jpg,M1.jpg,survey-text,48,2110338
testing,3E337GFOLAXCKW2KHLPBW9PF8HSNGM,TABLE,15100.550000090152,familiar,isolated,diningtable.jpg,picnictable.jpg,survey-text,38,309724
testing,3QL2OFSM977Z3KMFFZTS6I40AP0NCC,happy,5144.554999889806,tangram,isolated,F1.jpg,W1.jpg,survey-text,49,2115989
testing,3QL2OFSM977Z3KMFFZTS6I40AP0NCC,sad,2927.76000010781,tangram,isolated,B1.jpg,P1.jpg,survey-text,50,2119428
testing,3QL2OFSM977Z3KMFFZTS6I40AP0NCC,walk,4897.470000199974,tangram,isolated,A1.jpg,A2.jpg,survey-text,51,2124833
testing,3E337GFOLAXCKW2KHLPBW9PF8HSNGM,FISH,14461.620000191033,familiar,isolated,goldfish.jpg,swordfish.jpg,survey-text,39,324695
testing,3E337GFOLAXCKW2KHLPBW9PF8HSNGM,Car,5869.424999924377,familiar,isolated,sedan.jpg,sportscar.jpg,survey-text,40,331076
testing,3E337GFOLAXCKW2KHLPBW9PF8HSNGM,DOG,4677.135000005364,familiar,isolated,germanshepherd.jpg,pug.jpg,survey-text,41,336951
testing,3QL2OFSM977Z3KMFFZTS6I40AP0NCC,take care,13025.059999898076,tangram,isolated,H1.jpg,Y1.jpg,survey-text,52,2138383
testing,3E337GFOLAXCKW2KHLPBW9PF8HSNGM,GEMS,3422.465000068769,familiar,isolated,mnms.jpg,gummybears.jpg,survey-text,42,340886
testing,3QL2OFSM977Z3KMFFZTS6I40AP0NCC,please,7511.214999947697,tangram,isolated,K1.jpg,T1.jpg,survey-text,53,2146612
testing,3E337GFOLAXCKW2KHLPBW9PF8HSNGM,BEAR,5365.4149998910725,familiar,isolated,grizzlybear.jpg,polarbear.jpg,survey-text,43,346777
testing,3QL2OFSM977Z3KMFFZTS6I40AP0NCC,please,3880.8500000741333,tangram,isolated,I1.jpg,J1.jpg,survey-text,54,2151132
testing,3E337GFOLAXCKW2KHLPBW9PF8HSNGM,BIRD,7217.389999888837,familiar,isolated,sparrow.jpg,eagle.jpg,survey-text,44,354506
testing,3E337GFOLAXCKW2KHLPBW9PF8HSNGM,SHIRT,3470.225000055507,familiar,isolated,poloshirt.jpg,hawaiishirt.jpg,survey-text,45,358486
testing,3ZAK8W07I53S4IB80KCUPCUT9WWU0I,jumping,113055.09999999776,tangram,isolated,E1.jpg,F1.jpg,survey-text,35,1955873
testing,3E337GFOLAXCKW2KHLPBW9PF8HSNGM,,1548.8700000569224,,,,,html-button-response,46,360548
testing,3ZAK8W07I53S4IB80KCUPCUT9WWU0I,praying,2716.3200000068173,tangram,isolated,G1.jpg,M1.jpg,survey-text,36,1959098
testing,3ZAK8W07I53S4IB80KCUPCUT9WWU0I,,1157.210000033956,,,,,html-button-response,37,1960764
testing,3ZAK8W07I53S4IB80KCUPCUT9WWU0I,sparrow,2033.6850000312552,familiar,isolated,sparrow.jpg,eagle.jpg,survey-text,38,1963316
testing,3E337GFOLAXCKW2KHLPBW9PF8HSNGM,WOMAN,5985.2549999486655,tangram,far,I1.jpg,R1.jpg,survey-text,47,367048
testing,3ZAK8W07I53S4IB80KCUPCUT9WWU0I,car,2535.334999964107,familiar,isolated,sedan.jpg,sportscar.jpg,survey-text,39,1966358
testing,3ZAK8W07I53S4IB80KCUPCUT9WWU0I,bear,1570.9799999604002,familiar,isolated,grizzlybear.jpg,polarbear.jpg,survey-text,40,1968436
testing,3E337GFOLAXCKW2KHLPBW9PF8HSNGM,DOG,4020.3099998179823,tangram,far,K1.jpg,V1.jpg,survey-text,48,371585
testing,3ZAK8W07I53S4IB80KCUPCUT9WWU0I,shirt,2037.590000021737,familiar,isolated,poloshirt.jpg,hawaiishirt.jpg,survey-text,41,1970982
testing,3E337GFOLAXCKW2KHLPBW9PF8HSNGM,WALK,3428.279999876395,tangram,far,B1.jpg,O1.jpg,survey-text,49,375534
testing,3E337GFOLAXCKW2KHLPBW9PF8HSNGM,SIT,3462.1950001455843,tangram,far,G1.jpg,N1.jpg,survey-text,50,379511
testing,3E337GFOLAXCKW2KHLPBW9PF8HSNGM,STAND,4794.029999990016,tangram,far,H1.jpg,A2.jpg,survey-text,51,385012
testing,3E337GFOLAXCKW2KHLPBW9PF8HSNGM,RUN,3767.6200000569224,tangram,far,A1.jpg,D1.jpg,survey-text,52,389308
testing,3E337GFOLAXCKW2KHLPBW9PF8HSNGM,FLY,4354.934999952093,tangram,far,E1.jpg,C2.jpg,survey-text,53,394214
testing,3ZAK8W07I53S4IB80KCUPCUT9WWU0I,dog,20402.4250000366,familiar,isolated,germanshepherd.jpg,pug.jpg,survey-text,42,1991889
testing,3ZAK8W07I53S4IB80KCUPCUT9WWU0I,table,2017.4499999848194,familiar,isolated,diningtable.jpg,picnictable.jpg,survey-text,43,1994421
testing,3E337GFOLAXCKW2KHLPBW9PF8HSNGM,RUN,5034.1199999675155,tangram,far,F1.jpg,C1.jpg,survey-text,54,399763
testing,3ZAK8W07I53S4IB80KCUPCUT9WWU0I,candy,2229.555000027176,familiar,isolated,mnms.jpg,gummybears.jpg,survey-text,44,1997168
testing,3ZAK8W07I53S4IB80KCUPCUT9WWU0I,goldfish,2020.3550000442192,familiar,isolated,goldfish.jpg,swordfish.jpg,survey-text,45,1999703
testing,3ZAK8W07I53S4IB80KCUPCUT9WWU0I,,815.8050000201911,,,,,html-button-response,46,2001026
testing,3ZAK8W07I53S4IB80KCUPCUT9WWU0I,table,2031.0199999948964,familiar,far,diningtable.jpg,wardrobe.jpg,survey-text,47,2003562
testing,3ZAK8W07I53S4IB80KCUPCUT9WWU0I,bear,1410.860000003595,familiar,far,grizzlybear.jpg,lion.jpg,survey-text,48,2005483
testing,3ZAK8W07I53S4IB80KCUPCUT9WWU0I,shirt,1819.7199999704026,familiar,far,poloshirt.jpg,dress.jpg,survey-text,49,2007807
testing,3ZAK8W07I53S4IB80KCUPCUT9WWU0I,car,1392.4399999668822,familiar,far,sedan.jpg,firetruck.jpg,survey-text,50,2009711
testing,3ZAK8W07I53S4IB80KCUPCUT9WWU0I,candy,1613.1400000303984,familiar,far,mnms.jpg,pretzels.jpg,survey-text,51,2011831
testing,3ZAK8W07I53S4IB80KCUPCUT9WWU0I,dog,2529.1549999965355,familiar,far,germanshepherd.jpg,cow.jpg,survey-text,52,2014876
testing,3ZAK8W07I53S4IB80KCUPCUT9WWU0I,fish,1448.2350000180304,familiar,far,goldfish.jpg,iguana.jpg,survey-text,53,2016829
testing,3ZAK8W07I53S4IB80KCUPCUT9WWU0I,bird,1939.2549999756739,familiar,far,sparrow.jpg,squirrel.jpg,survey-text,54,2019283
testing,3A4TN5196L77TO04C1YF1Y74ODRHCX,,49620.99999998463,,,,,html-button-response,0,49630
testing,3A4TN5196L77TO04C1YF1Y74ODRHCX,,7846.000000019558,,,,,html-button-response,1,58485
testing,3A4TN5196L77TO04C1YF1Y74ODRHCX,bear,10493.000000016764,familiar,isolated,grizzlybear.jpg,polarbear.jpg,survey-text,2,69498
testing,3A4TN5196L77TO04C1YF1Y74ODRHCX,fish,8543.000000005122,familiar,isolated,goldfish.jpg,swordfish.jpg,survey-text,3,78557
testing,3A4TN5196L77TO04C1YF1Y74ODRHCX,sparrow,10187.999999965541,familiar,isolated,sparrow.jpg,eagle.jpg,survey-text,4,89254
testing,3A4TN5196L77TO04C1YF1Y74ODRHCX,table,11529.00000003865,familiar,isolated,diningtable.jpg,picnictable.jpg,survey-text,5,101294
testing,3A4TN5196L77TO04C1YF1Y74ODRHCX,car,6056.0000000405125,familiar,isolated,sedan.jpg,sportscar.jpg,survey-text,6,107866
testing,3A4TN5196L77TO04C1YF1Y74ODRHCX,shirt,6128.000000026077,familiar,isolated,poloshirt.jpg,hawaiishirt.jpg,survey-text,7,114506
testing,3A4TN5196L77TO04C1YF1Y74ODRHCX,dog,5983.99999999674,familiar,isolated,germanshepherd.jpg,pug.jpg,survey-text,8,121002
testing,3A4TN5196L77TO04C1YF1Y74ODRHCX,chocolates,27276.000000012573,familiar,isolated,mnms.jpg,gummybears.jpg,survey-text,9,148791
testing,3A4TN5196L77TO04C1YF1Y74ODRHCX,,6353.999999992084,,,,,html-button-response,10,155655
testing,3A4TN5196L77TO04C1YF1Y74ODRHCX,shapes,13214.999999967404,tangram,close,G1.jpg,M1.jpg,survey-text,11,169387
testing,3A4TN5196L77TO04C1YF1Y74ODRHCX,dog,17706.999999994878,tangram,close,K1.jpg,T1.jpg,survey-text,12,187609
testing,3A4TN5196L77TO04C1YF1Y74ODRHCX,human,19027.000000001863,tangram,close,A1.jpg,A2.jpg,survey-text,13,207150
testing,3VFJCI1K40OXZUUCAS6S5TUP9EHRGE,,84995.9150000359,,,,,html-button-response,0,84999
testing,3A4TN5196L77TO04C1YF1Y74ODRHCX,fish,29872.00000003213,tangram,close,I1.jpg,J1.jpg,survey-text,14,237540
testing,3VFJCI1K40OXZUUCAS6S5TUP9EHRGE,,2520.3549999860115,,,,,html-button-response,1,88523
testing,3F6KKYWMNCQ98CSTFVO3QOMIVPCNDC,,13680.325000000266,,,,,html-button-response,0,13684
testing,3VFJCI1K40OXZUUCAS6S5TUP9EHRGE,BEAR,3332.720000005793,familiar,isolated,grizzlybear.jpg,polarbear.jpg,survey-text,2,92362
testing,3F6KKYWMNCQ98CSTFVO3QOMIVPCNDC,,1824.4500000000698,,,,,html-button-response,1,16512
testing,3A4TN5196L77TO04C1YF1Y74ODRHCX,house,10273.999999975786,tangram,close,H1.jpg,Y1.jpg,survey-text,15,248324
testing,3VFJCI1K40OXZUUCAS6S5TUP9EHRGE,goldfish,4228.854999993928,familiar,isolated,goldfish.jpg,swordfish.jpg,survey-text,3,97095
testing,3F6KKYWMNCQ98CSTFVO3QOMIVPCNDC,shirt,4694.539999999961,familiar,isolated,poloshirt.jpg,hawaiishirt.jpg,survey-text,2,21713
testing,3VFJCI1K40OXZUUCAS6S5TUP9EHRGE,dog,3108.7100000004284,familiar,isolated,germanshepherd.jpg,pug.jpg,survey-text,4,100708
testing,3F6KKYWMNCQ98CSTFVO3QOMIVPCNDC,bear,3494.485000000168,familiar,isolated,grizzlybear.jpg,polarbear.jpg,survey-text,3,25713
testing,3VFJCI1K40OXZUUCAS6S5TUP9EHRGE,bird,2763.9949999866076,familiar,isolated,sparrow.jpg,eagle.jpg,survey-text,5,103983
testing,3A4TN5196L77TO04C1YF1Y74ODRHCX,human,9458.000000042375,tangram,close,B1.jpg,P1.jpg,survey-text,16,258312
testing,3F6KKYWMNCQ98CSTFVO3QOMIVPCNDC,dog,3256.1649999997826,familiar,isolated,germanshepherd.jpg,pug.jpg,survey-text,4,29473
testing,3VFJCI1K40OXZUUCAS6S5TUP9EHRGE,table,2846.109999984037,familiar,isolated,diningtable.jpg,picnictable.jpg,survey-text,6,107332
testing,3F6KKYWMNCQ98CSTFVO3QOMIVPCNDC,car,2542.654999999744,familiar,isolated,sedan.jpg,sportscar.jpg,survey-text,5,32521
testing,3VFJCI1K40OXZUUCAS6S5TUP9EHRGE,shirt,3182.9949999810196,familiar,isolated,poloshirt.jpg,hawaiishirt.jpg,survey-text,7,111020
testing,3VFJCI1K40OXZUUCAS6S5TUP9EHRGE,car,1621.3100000168197,familiar,isolated,sedan.jpg,sportscar.jpg,survey-text,8,113145
testing,3F6KKYWMNCQ98CSTFVO3QOMIVPCNDC,table,3385.0000000002183,familiar,isolated,diningtable.jpg,picnictable.jpg,survey-text,6,36417
testing,3A4TN5196L77TO04C1YF1Y74ODRHCX,bat,9089.999999967404,tangram,close,E1.jpg,F1.jpg,survey-text,17,267917
testing,3VFJCI1K40OXZUUCAS6S5TUP9EHRGE,candy,3346.625000005588,familiar,isolated,mnms.jpg,gummybears.jpg,survey-text,9,116994
testing,3F6KKYWMNCQ98CSTFVO3QOMIVPCNDC,fish,3207.1849999997576,familiar,isolated,goldfish.jpg,swordfish.jpg,survey-text,7,40128
testing,3VFJCI1K40OXZUUCAS6S5TUP9EHRGE,,2321.765000000596,,,,,html-button-response,10,119818
testing,3F6KKYWMNCQ98CSTFVO3QOMIVPCNDC,candy,3794.764999999643,familiar,isolated,mnms.jpg,gummybears.jpg,survey-text,8,44432
testing,3VFJCI1K40OXZUUCAS6S5TUP9EHRGE,waiter,3750.369999965187,tangram,isolated,I1.jpg,J1.jpg,survey-text,11,124071
testing,3VFJCI1K40OXZUUCAS6S5TUP9EHRGE,bird,3457.3200000450015,tangram,isolated,F1.jpg,W1.jpg,survey-text,12,128032
testing,3F6KKYWMNCQ98CSTFVO3QOMIVPCNDC,bird,5784.07000000016,familiar,isolated,sparrow.jpg,eagle.jpg,survey-text,9,50721
testing,3VFJCI1K40OXZUUCAS6S5TUP9EHRGE,runner,2434.095000033267,tangram,isolated,A1.jpg,A2.jpg,survey-text,13,130970
testing,3F6KKYWMNCQ98CSTFVO3QOMIVPCNDC,,3343.8399999999965,,,,,html-button-response,10,54568
testing,3A4TN5196L77TO04C1YF1Y74ODRHCX,shark,17596.99999995064,tangram,close,F1.jpg,W1.jpg,survey-text,18,286027
testing,3VFJCI1K40OXZUUCAS6S5TUP9EHRGE,sitting,3896.034999983385,tangram,isolated,G1.jpg,M1.jpg,survey-text,14,135369
testing,3VFJCI1K40OXZUUCAS6S5TUP9EHRGE,jumping,5246.405000041705,tangram,isolated,E1.jpg,F1.jpg,survey-text,15,141119
testing,3A4TN5196L77TO04C1YF1Y74ODRHCX,,7113.000000012107,,,,,html-button-response,19,293650
testing,3F6KKYWMNCQ98CSTFVO3QOMIVPCNDC,bird,8950.084999999948,familiar,far,sparrow.jpg,squirrel.jpg,survey-text,11,64025
testing,3VFJCI1K40OXZUUCAS6S5TUP9EHRGE,sulking,2508.704999985639,tangram,isolated,B1.jpg,P1.jpg,survey-text,16,144132
testing,3F6KKYWMNCQ98CSTFVO3QOMIVPCNDC,dog,3678.945000000109,familiar,far,germanshepherd.jpg,cow.jpg,survey-text,12,68209
testing,3F6KKYWMNCQ98CSTFVO3QOMIVPCNDC,shirt,2880.2000000000553,familiar,far,poloshirt.jpg,dress.jpg,survey-text,13,71594
testing,3VFJCI1K40OXZUUCAS6S5TUP9EHRGE,bending,5197.370000008959,tangram,isolated,K1.jpg,T1.jpg,survey-text,17,149832
testing,3A4TN5196L77TO04C1YF1Y74ODRHCX,dog,9364.000000001397,familiar,far,germanshepherd.jpg,cow.jpg,survey-text,20,303530
testing,3F6KKYWMNCQ98CSTFVO3QOMIVPCNDC,fish,5149.5899999999965,familiar,far,goldfish.jpg,iguana.jpg,survey-text,14,77249
testing,3VFJCI1K40OXZUUCAS6S5TUP9EHRGE,requesting,5158.215000003111,tangram,isolated,H1.jpg,Y1.jpg,survey-text,18,155494
testing,3VFJCI1K40OXZUUCAS6S5TUP9EHRGE,,2686.5899999975227,,,,,html-button-response,19,158682
testing,3A4TN5196L77TO04C1YF1Y74ODRHCX,sparrow,7455.000000016298,familiar,far,sparrow.jpg,squirrel.jpg,survey-text,21,311497
testing,3F6KKYWMNCQ98CSTFVO3QOMIVPCNDC,candy,4159.3749999997235,familiar,far,mnms.jpg,pretzels.jpg,survey-text,15,81912
testing,3F6KKYWMNCQ98CSTFVO3QOMIVPCNDC,bear,4208.630000000092,familiar,far,grizzlybear.jpg,lion.jpg,survey-text,16,86626
testing,3A4TN5196L77TO04C1YF1Y74ODRHCX,fish,6263.999999966472,familiar,far,goldfish.jpg,iguana.jpg,survey-text,22,318271
testing,3VFJCI1K40OXZUUCAS6S5TUP9EHRGE,begging,8394.899999955669,tangram,far,I1.jpg,R1.jpg,survey-text,20,167582
testing,3F6KKYWMNCQ98CSTFVO3QOMIVPCNDC,car,7621.465000000171,familiar,far,sedan.jpg,firetruck.jpg,survey-text,17,94753
testing,3VFJCI1K40OXZUUCAS6S5TUP9EHRGE,running,5046.945000009146,tangram,far,A1.jpg,D1.jpg,survey-text,21,173133
testing,3A4TN5196L77TO04C1YF1Y74ODRHCX,table,7676.999999966938,familiar,far,diningtable.jpg,wardrobe.jpg,survey-text,23,326477
testing,3F6KKYWMNCQ98CSTFVO3QOMIVPCNDC,table,4531.985000000073,familiar,far,diningtable.jpg,wardrobe.jpg,survey-text,18,99793
testing,3VFJCI1K40OXZUUCAS6S5TUP9EHRGE,sulking,5644.994999980554,tangram,far,B1.jpg,O1.jpg,survey-text,22,179282
testing,3F6KKYWMNCQ98CSTFVO3QOMIVPCNDC,,1775.819999999847,,,,,html-button-response,19,102071
testing,3A4TN5196L77TO04C1YF1Y74ODRHCX,bear,7673.000000009779,familiar,far,grizzlybear.jpg,lion.jpg,survey-text,24,334669
testing,3VFJCI1K40OXZUUCAS6S5TUP9EHRGE,jumping,3809.175000002142,tangram,far,E1.jpg,C2.jpg,survey-text,23,183594
testing,3VFJCI1K40OXZUUCAS6S5TUP9EHRGE,lunging,10608.784999989439,tangram,far,F1.jpg,C1.jpg,survey-text,24,194707
testing,3VFJCI1K40OXZUUCAS6S5TUP9EHRGE,kneeling,5671.124999993481,tangram,far,G1.jpg,N1.jpg,survey-text,25,200882
testing,3F6KKYWMNCQ98CSTFVO3QOMIVPCNDC,sit,21726.09999999986,tangram,far,G1.jpg,N1.jpg,survey-text,20,124305
testing,3VFJCI1K40OXZUUCAS6S5TUP9EHRGE,begging,3544.690000009723,tangram,far,H1.jpg,A2.jpg,survey-text,26,204932
testing,3VFJCI1K40OXZUUCAS6S5TUP9EHRGE,bending,5846.285000036005,tangram,far,K1.jpg,V1.jpg,survey-text,27,211282
testing,3F6KKYWMNCQ98CSTFVO3QOMIVPCNDC,bend,8799.539999999979,tangram,far,K1.jpg,V1.jpg,survey-text,21,133609
testing,3VFJCI1K40OXZUUCAS6S5TUP9EHRGE,,3541.3299999781884,,,,,html-button-response,28,215325
testing,3F6KKYWMNCQ98CSTFVO3QOMIVPCNDC,walk,5375.079999999813,tangram,far,B1.jpg,O1.jpg,survey-text,22,139489
testing,3VFJCI1K40OXZUUCAS6S5TUP9EHRGE,chocolate,4053.6149999825284,familiar,close,mnms.jpg,gummybears.jpg,survey-text,29,219882
testing,3F6KKYWMNCQ98CSTFVO3QOMIVPCNDC,celebrate,8508.945000000036,tangram,far,E1.jpg,C2.jpg,survey-text,23,148505
testing,3F6KKYWMNCQ98CSTFVO3QOMIVPCNDC,frolick,15438.405000000348,tangram,far,A1.jpg,D1.jpg,survey-text,24,164448
testing,3VFJCI1K40OXZUUCAS6S5TUP9EHRGE,monotone,26371.165000018664,familiar,close,poloshirt.jpg,hawaiishirt.jpg,survey-text,30,246757
testing,3J4Q2Z4UTZSTKF5CCILAM6687G5WQH,,20944.900000002235,,,,,html-button-response,0,20953
testing,3F6KKYWMNCQ98CSTFVO3QOMIVPCNDC,splits,12494.209999999817,tangram,far,F1.jpg,C1.jpg,survey-text,25,177449
testing,3J4Q2Z4UTZSTKF5CCILAM6687G5WQH,,1557.7250000205822,,,,,html-button-response,1,23522
testing,3VFJCI1K40OXZUUCAS6S5TUP9EHRGE,desk,8995.46000000555,familiar,close,diningtable.jpg,picnictable.jpg,survey-text,31,256257
testing,3F6KKYWMNCQ98CSTFVO3QOMIVPCNDC,pray,6335.340000000113,tangram,far,H1.jpg,A2.jpg,survey-text,26,184289
testing,3J4Q2Z4UTZSTKF5CCILAM6687G5WQH,chair,10445.019999984652,familiar,close,diningtable.jpg,picnictable.jpg,survey-text,2,34483
testing,3F6KKYWMNCQ98CSTFVO3QOMIVPCNDC,serve,4990.405000000028,tangram,far,I1.jpg,R1.jpg,survey-text,27,189784
testing,3F6KKYWMNCQ98CSTFVO3QOMIVPCNDC,,954.5750000001863,,,,,html-button-response,28,191241
testing,3J4Q2Z4UTZSTKF5CCILAM6687G5WQH,bird,5985.969999979716,familiar,close,sparrow.jpg,eagle.jpg,survey-text,3,40983
testing,3F6KKYWMNCQ98CSTFVO3QOMIVPCNDC,celebrate,7681.614999999962,tangram,close,E1.jpg,F1.jpg,survey-text,29,199433
testing,3A4TN5196L77TO04C1YF1Y74ODRHCX,chocolates,94411.00000002189,familiar,far,mnms.jpg,pretzels.jpg,survey-text,25,429596
testing,3F6KKYWMNCQ98CSTFVO3QOMIVPCNDC,bend,4920.544999999955,tangram,close,K1.jpg,T1.jpg,survey-text,30,204864
testing,3VFJCI1K40OXZUUCAS6S5TUP9EHRGE,blackbear,26758.87000001967,familiar,close,grizzlybear.jpg,polarbear.jpg,survey-text,32,283519
testing,3A4TN5196L77TO04C1YF1Y74ODRHCX,shirt,8913.999999989755,familiar,far,poloshirt.jpg,dress.jpg,survey-text,26,439033
testing,3J4Q2Z4UTZSTKF5CCILAM6687G5WQH,dog,14269.774999993388,familiar,close,grizzlybear.jpg,polarbear.jpg,survey-text,4,55767
testing,3F6KKYWMNCQ98CSTFVO3QOMIVPCNDC,walk,7416.140000000276,tangram,close,B1.jpg,P1.jpg,survey-text,31,212785
testing,3A4TN5196L77TO04C1YF1Y74ODRHCX,car,6027.999999991152,familiar,far,sedan.jpg,firetruck.jpg,survey-text,27,445572
testing,3F6KKYWMNCQ98CSTFVO3QOMIVPCNDC,splits,3823.5400000003283,tangram,close,F1.jpg,W1.jpg,survey-text,32,217114
testing,3J4Q2Z4UTZSTKF5CCILAM6687G5WQH,dog,6067.689999996219,familiar,close,germanshepherd.jpg,pug.jpg,survey-text,5,62345
testing,3F6KKYWMNCQ98CSTFVO3QOMIVPCNDC,sit,3134.049999999668,tangram,close,G1.jpg,M1.jpg,survey-text,33,220753
testing,3A4TN5196L77TO04C1YF1Y74ODRHCX,,4475.000000034925,,,,,html-button-response,28,450554
testing,3J4Q2Z4UTZSTKF5CCILAM6687G5WQH,shirt,5366.414999996778,familiar,close,poloshirt.jpg,hawaiishirt.jpg,survey-text,6,68223
testing,3VFJCI1K40OXZUUCAS6S5TUP9EHRGE,hunter,18233.464999997523,familiar,close,germanshepherd.jpg,pug.jpg,survey-text,33,302257
testing,3F6KKYWMNCQ98CSTFVO3QOMIVPCNDC,frolick,4175.069999999774,tangram,close,A1.jpg,A2.jpg,survey-text,34,225433
testing,3VFJCI1K40OXZUUCAS6S5TUP9EHRGE,goldfish,3708.8849999709055,familiar,close,goldfish.jpg,swordfish.jpg,survey-text,34,306469
testing,3J4Q2Z4UTZSTKF5CCILAM6687G5WQH,fish,10332.605000003241,familiar,close,goldfish.jpg,swordfish.jpg,survey-text,7,79064
testing,3VFJCI1K40OXZUUCAS6S5TUP9EHRGE,sparrow,6071.839999989606,familiar,close,sparrow.jpg,eagle.jpg,survey-text,35,313044
testing,3A4TN5196L77TO04C1YF1Y74ODRHCX,human,14010.000000009313,tangram,isolated,B1.jpg,P1.jpg,survey-text,29,465082
testing,3F6KKYWMNCQ98CSTFVO3QOMIVPCNDC,pray,10556.275000000373,tangram,close,H1.jpg,Y1.jpg,survey-text,35,236496
testing,3J4Q2Z4UTZSTKF5CCILAM6687G5WQH,car,4869.264999986626,familiar,close,sedan.jpg,sportscar.jpg,survey-text,8,84443
testing,3F6KKYWMNCQ98CSTFVO3QOMIVPCNDC,serve,2912.6649999998335,tangram,close,I1.jpg,J1.jpg,survey-text,36,239914
testing,3F6KKYWMNCQ98CSTFVO3QOMIVPCNDC,,886.9400000003225,,,,,html-button-response,37,241303
testing,3VFJCI1K40OXZUUCAS6S5TUP9EHRGE,sedan,5833.700000017416,familiar,close,sedan.jpg,sportscar.jpg,survey-text,36,319382
testing,3A4TN5196L77TO04C1YF1Y74ODRHCX,dog,8505.000000004657,tangram,isolated,K1.jpg,T1.jpg,survey-text,30,474099
testing,3VFJCI1K40OXZUUCAS6S5TUP9EHRGE,,2374.0649999817833,,,,,html-button-response,37,322257
testing,3VFJCI1K40OXZUUCAS6S5TUP9EHRGE,cheering,5533.675000013318,tangram,close,E1.jpg,F1.jpg,survey-text,38,328294
testing,3J4Q2Z4UTZSTKF5CCILAM6687G5WQH,candy,11030.019999947399,familiar,close,mnms.jpg,gummybears.jpg,survey-text,9,95986
testing,3A4TN5196L77TO04C1YF1Y74ODRHCX,shark,6504.000000015367,tangram,isolated,F1.jpg,W1.jpg,survey-text,31,481112
testing,3F6KKYWMNCQ98CSTFVO3QOMIVPCNDC,M&M,9815.704999999958,familiar,close,mnms.jpg,gummybears.jpg,survey-text,38,251625
testing,3J4Q2Z4UTZSTKF5CCILAM6687G5WQH,,1809.5599999651313,,,,,html-button-response,10,98314
testing,3VFJCI1K40OXZUUCAS6S5TUP9EHRGE,squatting,9120.705000008456,tangram,close,G1.jpg,M1.jpg,survey-text,39,337919
testing,3J4Q2Z4UTZSTKF5CCILAM6687G5WQH,bird,7357.755000004545,familiar,isolated,sparrow.jpg,eagle.jpg,survey-text,11,106184
testing,3F6KKYWMNCQ98CSTFVO3QOMIVPCNDC,wren,9294.810000000347,familiar,close,sparrow.jpg,eagle.jpg,survey-text,39,261425
testing,3A4TN5196L77TO04C1YF1Y74ODRHCX,fish,9597.000000008848,tangram,isolated,I1.jpg,J1.jpg,survey-text,32,491543
testing,3VFJCI1K40OXZUUCAS6S5TUP9EHRGE,sulking,3246.050000016112,tangram,close,B1.jpg,P1.jpg,survey-text,40,341669
testing,3F6KKYWMNCQ98CSTFVO3QOMIVPCNDC,shepherd,4101.485000000161,familiar,close,germanshepherd.jpg,pug.jpg,survey-text,40,266033
testing,3VFJCI1K40OXZUUCAS6S5TUP9EHRGE,bending,3034.4399999594316,tangram,close,K1.jpg,T1.jpg,survey-text,41,345207
testing,3J4Q2Z4UTZSTKF5CCILAM6687G5WQH,shirt,6708.515000005718,familiar,isolated,poloshirt.jpg,hawaiishirt.jpg,survey-text,12,113405
testing,3A4TN5196L77TO04C1YF1Y74ODRHCX,human,8386.999999987893,tangram,isolated,A1.jpg,A2.jpg,survey-text,33,500446
testing,3F6KKYWMNCQ98CSTFVO3QOMIVPCNDC,goldfish,4932.27999999997,familiar,close,goldfish.jpg,swordfish.jpg,survey-text,41,271473
testing,3J4Q2Z4UTZSTKF5CCILAM6687G5WQH,dog,6808.399999979883,familiar,isolated,germanshepherd.jpg,pug.jpg,survey-text,13,120726
testing,3VFJCI1K40OXZUUCAS6S5TUP9EHRGE,waiter,7746.214999991935,tangram,close,I1.jpg,J1.jpg,survey-text,42,353456
testing,3F6KKYWMNCQ98CSTFVO3QOMIVPCNDC,grizzly,4520.164999999921,familiar,close,grizzlybear.jpg,polarbear.jpg,survey-text,42,276497
testing,3A4TN5196L77TO04C1YF1Y74ODRHCX,house,8288.000000000466,tangram,isolated,H1.jpg,Y1.jpg,survey-text,34,509246
testing,3VFJCI1K40OXZUUCAS6S5TUP9EHRGE,cheering,4034.3850000062957,tangram,close,F1.jpg,W1.jpg,survey-text,43,357994
testing,3VFJCI1K40OXZUUCAS6S5TUP9EHRGE,begging,3695.8899999735877,tangram,close,H1.jpg,Y1.jpg,survey-text,44,362194
testing,3F6KKYWMNCQ98CSTFVO3QOMIVPCNDC,table,10351.000000000116,familiar,close,diningtable.jpg,picnictable.jpg,survey-text,43,287353
testing,3J4Q2Z4UTZSTKF5CCILAM6687G5WQH,fish,13680.850000004284,familiar,isolated,goldfish.jpg,swordfish.jpg,survey-text,14,134912
testing,3VFJCI1K40OXZUUCAS6S5TUP9EHRGE,sprinting,5983.185000019148,tangram,close,A1.jpg,A2.jpg,survey-text,45,368681
testing,3VFJCI1K40OXZUUCAS6S5TUP9EHRGE,,1819.690000033006,,,,,html-button-response,46,371002
testing,3J4Q2Z4UTZSTKF5CCILAM6687G5WQH,deer,9190.579999994952,familiar,isolated,grizzlybear.jpg,polarbear.jpg,survey-text,15,144612
testing,3J4Q2Z4UTZSTKF5CCILAM6687G5WQH,chair,6142.6099999807775,familiar,isolated,diningtable.jpg,picnictable.jpg,survey-text,16,151263
testing,3J4Q2Z4UTZSTKF5CCILAM6687G5WQH,car,5006.614999962039,familiar,isolated,sedan.jpg,sportscar.jpg,survey-text,17,156777
testing,3A4TN5196L77TO04C1YF1Y74ODRHCX,dolphin,32684.99999999767,tangram,isolated,G1.jpg,M1.jpg,survey-text,35,542442
testing,3J4Q2Z4UTZSTKF5CCILAM6687G5WQH,candy,5190.075000049546,familiar,isolated,mnms.jpg,gummybears.jpg,survey-text,18,162485
testing,3A4TN5196L77TO04C1YF1Y74ODRHCX,bat,5965.000000025611,tangram,isolated,E1.jpg,F1.jpg,survey-text,36,548933
testing,3J4Q2Z4UTZSTKF5CCILAM6687G5WQH,,3100.3250000067055,,,,,html-button-response,19,166091
testing,3A4TN5196L77TO04C1YF1Y74ODRHCX,,2141.9999999925494,,,,,html-button-response,37,551582
testing,3J4Q2Z4UTZSTKF5CCILAM6687G5WQH,chair,9383.799999952316,familiar,far,diningtable.jpg,wardrobe.jpg,survey-text,20,175984
testing,3F6KKYWMNCQ98CSTFVO3QOMIVPCNDC,shirt,43958.47000000009,familiar,close,poloshirt.jpg,hawaiishirt.jpg,survey-text,44,331816
testing,3F6KKYWMNCQ98CSTFVO3QOMIVPCNDC,sedan,6488.479999999981,familiar,close,sedan.jpg,sportscar.jpg,survey-text,45,338809
testing,3F6KKYWMNCQ98CSTFVO3QOMIVPCNDC,,848.7500000000582,,,,,html-button-response,46,340162
testing,3J4Q2Z4UTZSTKF5CCILAM6687G5WQH,animal,13220.54999996908,familiar,far,sparrow.jpg,squirrel.jpg,survey-text,21,189711
testing,3F6KKYWMNCQ98CSTFVO3QOMIVPCNDC,splits,5980.469999999972,tangram,isolated,F1.jpg,W1.jpg,survey-text,47,346648
testing,3J4Q2Z4UTZSTKF5CCILAM6687G5WQH,dress,5122.845000005327,familiar,far,poloshirt.jpg,dress.jpg,survey-text,22,195343
testing,3F6KKYWMNCQ98CSTFVO3QOMIVPCNDC,celebrate,3160.374999999942,tangram,isolated,E1.jpg,F1.jpg,survey-text,48,350312
testing,3F6KKYWMNCQ98CSTFVO3QOMIVPCNDC,bend,4031.00499999983,tangram,isolated,K1.jpg,T1.jpg,survey-text,49,354848
testing,3A4TN5196L77TO04C1YF1Y74ODRHCX,grizzly,32900.00000002328,familiar,close,grizzlybear.jpg,polarbear.jpg,survey-text,38,584996
testing,3F6KKYWMNCQ98CSTFVO3QOMIVPCNDC,pray,2447.4300000001676,tangram,isolated,H1.jpg,Y1.jpg,survey-text,50,357799
testing,3F6KKYWMNCQ98CSTFVO3QOMIVPCNDC,sit,3184.5800000001327,tangram,isolated,G1.jpg,M1.jpg,survey-text,51,361488
testing,3J4Q2Z4UTZSTKF5CCILAM6687G5WQH,snacks,11260.490000015125,familiar,far,mnms.jpg,pretzels.jpg,survey-text,23,207122
testing,3F6KKYWMNCQ98CSTFVO3QOMIVPCNDC,frolick,2543.230000000214,tangram,isolated,A1.jpg,A2.jpg,survey-text,52,364535
testing,3F6KKYWMNCQ98CSTFVO3QOMIVPCNDC,serve,2776.2949999996927,tangram,isolated,I1.jpg,J1.jpg,survey-text,53,367816
testing,3A4TN5196L77TO04C1YF1Y74ODRHCX,goldfish,14616.999999969266,familiar,close,goldfish.jpg,swordfish.jpg,survey-text,39,600128
testing,3F6KKYWMNCQ98CSTFVO3QOMIVPCNDC,walk,2377.1200000001118,tangram,isolated,B1.jpg,P1.jpg,survey-text,54,370698
testing,3J4Q2Z4UTZSTKF5CCILAM6687G5WQH,animal,15808.230000024196,familiar,far,goldfish.jpg,iguana.jpg,survey-text,24,223442
testing,3A4TN5196L77TO04C1YF1Y74ODRHCX,car,11744.999999995343,familiar,close,sedan.jpg,sportscar.jpg,survey-text,40,612386
testing,3K9FOBBF2I8S6OGLSCMR91UN4YGNLU,,3563.0000000819564,,,,,html-button-response,0,3571
testing,3K9FOBBF2I8S6OGLSCMR91UN4YGNLU,,2924.000000115484,,,,,html-button-response,1,7505
testing,3J4Q2Z4UTZSTKF5CCILAM6687G5WQH,animal,19030.970000021625,familiar,far,germanshepherd.jpg,cow.jpg,survey-text,25,242983
testing,3A4TN5196L77TO04C1YF1Y74ODRHCX,dog,15285.999999963678,familiar,close,germanshepherd.jpg,pug.jpg,survey-text,41,628184
testing,3J4Q2Z4UTZSTKF5CCILAM6687G5WQH,vechicle,6252.214999985881,familiar,far,sedan.jpg,firetruck.jpg,survey-text,26,249742
testing,3K9FOBBF2I8S6OGLSCMR91UN4YGNLU,B,9120.000000111759,familiar,isolated,grizzlybear.jpg,polarbear.jpg,survey-text,2,17138
testing,3A4TN5196L77TO04C1YF1Y74ODRHCX,table,8650.000000023283,familiar,close,diningtable.jpg,picnictable.jpg,survey-text,42,637348
testing,3K9FOBBF2I8S6OGLSCMR91UN4YGNLU,T ,6030.999999959022,familiar,isolated,poloshirt.jpg,hawaiishirt.jpg,survey-text,3,23672
testing,3J4Q2Z4UTZSTKF5CCILAM6687G5WQH,animal,7619.375000009313,familiar,far,grizzlybear.jpg,lion.jpg,survey-text,27,257883
testing,3J4Q2Z4UTZSTKF5CCILAM6687G5WQH,,2336.1900000018068,,,,,html-button-response,28,260723
testing,3K9FOBBF2I8S6OGLSCMR91UN4YGNLU,B,7006.999999983236,familiar,isolated,diningtable.jpg,picnictable.jpg,survey-text,4,31212
testing,3K9FOBBF2I8S6OGLSCMR91UN4YGNLU,C,3800.000000046566,familiar,isolated,sedan.jpg,sportscar.jpg,survey-text,5,35520
testing,3VFJCI1K40OXZUUCAS6S5TUP9EHRGE,,16482.490000023972,,,,,html-button-response,0,16484
testing,3K9FOBBF2I8S6OGLSCMR91UN4YGNLU,F,3655.0000000279397,familiar,isolated,goldfish.jpg,swordfish.jpg,survey-text,6,39693
testing,3J4Q2Z4UTZSTKF5CCILAM6687G5WQH,logo,14534.210000012536,tangram,isolated,E1.jpg,F1.jpg,survey-text,29,275785
testing,3VFJCI1K40OXZUUCAS6S5TUP9EHRGE,,1817.9450000170618,,,,,html-button-response,1,19307
testing,3A4TN5196L77TO04C1YF1Y74ODRHCX,sparrow,23915.000000037253,familiar,close,sparrow.jpg,eagle.jpg,survey-text,43,661774
testing,3J4Q2Z4UTZSTKF5CCILAM6687G5WQH,logo,6808.834999974351,tangram,isolated,F1.jpg,W1.jpg,survey-text,30,283103
testing,3A4TN5196L77TO04C1YF1Y74ODRHCX,shirt,8010.999999998603,familiar,close,poloshirt.jpg,hawaiishirt.jpg,survey-text,44,670297
testing,3VFJCI1K40OXZUUCAS6S5TUP9EHRGE,Honda,10846.36500000488,familiar,close,sedan.jpg,sportscar.jpg,survey-text,2,30659
testing,33M4IA01QHQ8LGP2Z26WTFUKC4FXRE,,81462.67999999691,,,,,html-button-response,0,81465
testing,33M4IA01QHQ8LGP2Z26WTFUKC4FXRE,,4352.450000005774,,,,,html-button-response,1,86822
testing,3A4TN5196L77TO04C1YF1Y74ODRHCX,chocolates,8545.00000004191,familiar,close,mnms.jpg,gummybears.jpg,survey-text,45,679353
testing,3VFJCI1K40OXZUUCAS6S5TUP9EHRGE,circular,8352.17999998713,familiar,close,mnms.jpg,gummybears.jpg,survey-text,3,39515
testing,3A4TN5196L77TO04C1YF1Y74ODRHCX,,1744.9999999953434,,,,,html-button-response,46,681621
testing,3J4Q2Z4UTZSTKF5CCILAM6687G5WQH,graduate ,13982.31999995187,tangram,isolated,H1.jpg,Y1.jpg,survey-text,31,297595
testing,3VFJCI1K40OXZUUCAS6S5TUP9EHRGE,brown,4592.145000002347,familiar,close,grizzlybear.jpg,polarbear.jpg,survey-text,4,44610
testing,3J4Q2Z4UTZSTKF5CCILAM6687G5WQH,man,8159.905000007711,tangram,isolated,I1.jpg,J1.jpg,survey-text,32,306265
testing,3VFJCI1K40OXZUUCAS6S5TUP9EHRGE,long,15184.970000002068,familiar,close,diningtable.jpg,picnictable.jpg,survey-text,5,60298
testing,3A4TN5196L77TO04C1YF1Y74ODRHCX,shapes,21087.999999988824,tangram,far,A1.jpg,D1.jpg,survey-text,47,703224
testing,3J4Q2Z4UTZSTKF5CCILAM6687G5WQH,dance,12352.52000001492,tangram,isolated,A1.jpg,A2.jpg,survey-text,33,319127
testing,3K9FOBBF2I8S6OGLSCMR91UN4YGNLU,CHOCOLATE,48893.00000015646,familiar,isolated,mnms.jpg,gummybears.jpg,survey-text,7,89100
testing,3VFJCI1K40OXZUUCAS6S5TUP9EHRGE,orange,6329.904999991413,familiar,close,goldfish.jpg,swordfish.jpg,survey-text,6,67131
testing,3J4Q2Z4UTZSTKF5CCILAM6687G5WQH,dog,6558.765000023413,tangram,isolated,K1.jpg,T1.jpg,survey-text,34,326194
testing,3A4TN5196L77TO04C1YF1Y74ODRHCX,human,11456.999999994878,tangram,far,F1.jpg,C1.jpg,survey-text,48,715194
testing,3K9FOBBF2I8S6OGLSCMR91UN4YGNLU,BIRD,11554.000000003725,familiar,isolated,sparrow.jpg,eagle.jpg,survey-text,8,101165
testing,3J4Q2Z4UTZSTKF5CCILAM6687G5WQH,women,8300.859999959357,tangram,isolated,G1.jpg,M1.jpg,survey-text,35,335013
testing,3VFJCI1K40OXZUUCAS6S5TUP9EHRGE,monochrome,10456.83999999892,familiar,close,poloshirt.jpg,hawaiishirt.jpg,survey-text,7,78091
testing,3K9FOBBF2I8S6OGLSCMR91UN4YGNLU,DOG,3686.000000219792,familiar,isolated,germanshepherd.jpg,pug.jpg,survey-text,9,105360
testing,3VFJCI1K40OXZUUCAS6S5TUP9EHRGE,shepherd,6552.1150000276975,familiar,close,germanshepherd.jpg,pug.jpg,survey-text,8,85147
testing,3K9FOBBF2I8S6OGLSCMR91UN4YGNLU,,2716.9999999459833,,,,,html-button-response,10,108594
testing,3J4Q2Z4UTZSTKF5CCILAM6687G5WQH,step,10177.574999979697,tangram,isolated,B1.jpg,P1.jpg,survey-text,36,345703
testing,3Z7ISHFUH1KR86AL1BOHZJFQUCNZ8Z,,19459.940000000002,,,,,html-button-response,0,19463
testing,3A4TN5196L77TO04C1YF1Y74ODRHCX,human,15645.000000018626,tangram,far,I1.jpg,R1.jpg,survey-text,49,731355
testing,3J4Q2Z4UTZSTKF5CCILAM6687G5WQH,,1876.6250000335276,,,,,html-button-response,37,348084
testing,3Z7ISHFUH1KR86AL1BOHZJFQUCNZ8Z,,2779.4000000000015,,,,,html-button-response,1,23253
testing,3VFJCI1K40OXZUUCAS6S5TUP9EHRGE,small,8000.620000006165,familiar,close,sparrow.jpg,eagle.jpg,survey-text,9,93650
testing,3VFJCI1K40OXZUUCAS6S5TUP9EHRGE,,2033.8749999646097,,,,,html-button-response,10,96187
testing,3J4Q2Z4UTZSTKF5CCILAM6687G5WQH,run,4765.0599999469705,tangram,far,I1.jpg,R1.jpg,survey-text,38,353357
testing,3A4TN5196L77TO04C1YF1Y74ODRHCX,human,10160.999999963678,tangram,far,K1.jpg,V1.jpg,survey-text,50,742032
testing,3J4Q2Z4UTZSTKF5CCILAM6687G5WQH,step,5693.599999998696,tangram,far,B1.jpg,O1.jpg,survey-text,39,359564
testing,3VFJCI1K40OXZUUCAS6S5TUP9EHRGE,standing,6201.765000005253,tangram,far,G1.jpg,N1.jpg,survey-text,11,102891
testing,3K9FOBBF2I8S6OGLSCMR91UN4YGNLU,MEN,20227.99999988638,tangram,close,H1.jpg,Y1.jpg,survey-text,11,129326
testing,3VFJCI1K40OXZUUCAS6S5TUP9EHRGE,begging,4384.22000000719,tangram,far,H1.jpg,A2.jpg,survey-text,12,107779
testing,3A4TN5196L77TO04C1YF1Y74ODRHCX,human,6913.000000000466,tangram,far,H1.jpg,A2.jpg,survey-text,51,749455
testing,3J4Q2Z4UTZSTKF5CCILAM6687G5WQH,dance,5164.37999997288,tangram,far,E1.jpg,C2.jpg,survey-text,40,365240
testing,3Z7ISHFUH1KR86AL1BOHZJFQUCNZ8Z,grizzly,17190.899999999998,familiar,close,grizzlybear.jpg,polarbear.jpg,survey-text,2,40962
testing,3K9FOBBF2I8S6OGLSCMR91UN4YGNLU,BEGGER,6358.999999938533,tangram,close,I1.jpg,J1.jpg,survey-text,12,136194
testing,3A4TN5196L77TO04C1YF1Y74ODRHCX,human,5456.999999994878,tangram,far,B1.jpg,O1.jpg,survey-text,52,755435
testing,3J4Q2Z4UTZSTKF5CCILAM6687G5WQH,run,5057.1850000415,tangram,far,K1.jpg,V1.jpg,survey-text,41,370807
testing,3A4TN5196L77TO04C1YF1Y74ODRHCX,human,8809.000000008382,tangram,far,E1.jpg,C2.jpg,survey-text,53,764754
testing,3VFJCI1K40OXZUUCAS6S5TUP9EHRGE,leaning,15020.80500003649,tangram,far,K1.jpg,V1.jpg,survey-text,13,123307
testing,3J4Q2Z4UTZSTKF5CCILAM6687G5WQH,dance,10603.530000022147,tangram,far,H1.jpg,A2.jpg,survey-text,42,381924
testing,3K9FOBBF2I8S6OGLSCMR91UN4YGNLU,SITTING,11722.999999998137,tangram,close,G1.jpg,M1.jpg,survey-text,13,148427
testing,3Z7ISHFUH1KR86AL1BOHZJFQUCNZ8Z,M&Ms,15885.560000000005,familiar,close,mnms.jpg,gummybears.jpg,survey-text,3,57362
testing,3VFJCI1K40OXZUUCAS6S5TUP9EHRGE,sad,5175.615000014659,tangram,far,B1.jpg,O1.jpg,survey-text,14,128986
testing,3J4Q2Z4UTZSTKF5CCILAM6687G5WQH,dance,5296.2749999715015,tangram,far,G1.jpg,N1.jpg,survey-text,43,387731
testing,3A4TN5196L77TO04C1YF1Y74ODRHCX,human,7365.999999979977,tangram,far,G1.jpg,N1.jpg,survey-text,54,772634
testing,3VFJCI1K40OXZUUCAS6S5TUP9EHRGE,running,5081.074999994598,tangram,far,A1.jpg,D1.jpg,survey-text,15,134570
testing,3K9FOBBF2I8S6OGLSCMR91UN4YGNLU,SHADOW,11452.000000048429,tangram,close,K1.jpg,T1.jpg,survey-text,14,160388
testing,3J4Q2Z4UTZSTKF5CCILAM6687G5WQH,pray,6642.700000025798,tangram,far,F1.jpg,C1.jpg,survey-text,44,394884
testing,3K9FOBBF2I8S6OGLSCMR91UN4YGNLU,SAD,4837.999999988824,tangram,close,B1.jpg,P1.jpg,survey-text,15,165761
testing,3VFJCI1K40OXZUUCAS6S5TUP9EHRGE,asking,7576.920000021346,tangram,far,I1.jpg,R1.jpg,survey-text,16,142651
testing,3Z7ISHFUH1KR86AL1BOHZJFQUCNZ8Z,large,16727.140000000007,familiar,close,germanshepherd.jpg,pug.jpg,survey-text,4,74601
testing,3J4Q2Z4UTZSTKF5CCILAM6687G5WQH,human,8927.520000026561,tangram,far,A1.jpg,D1.jpg,survey-text,45,404326
testing,3K9FOBBF2I8S6OGLSCMR91UN4YGNLU,FLYING,6033.999999985099,tangram,close,E1.jpg,F1.jpg,survey-text,16,172306
testing,3VFJCI1K40OXZUUCAS6S5TUP9EHRGE,excited,6608.210000034887,tangram,far,F1.jpg,C1.jpg,survey-text,17,149763
testing,3J4Q2Z4UTZSTKF5CCILAM6687G5WQH,,2017.8949999972247,,,,,html-button-response,46,406849
testing,3VFJCI1K40OXZUUCAS6S5TUP9EHRGE,jumping,3520.1300000189804,tangram,far,E1.jpg,C2.jpg,survey-text,18,153786
testing,3J4Q2Z4UTZSTKF5CCILAM6687G5WQH,beg,4824.8400000156835,tangram,close,K1.jpg,T1.jpg,survey-text,47,412193
testing,3K9FOBBF2I8S6OGLSCMR91UN4YGNLU,RUNNING,5766.999999992549,tangram,close,A1.jpg,A2.jpg,survey-text,17,178578
testing,3VFJCI1K40OXZUUCAS6S5TUP9EHRGE,,1329.135000007227,,,,,html-button-response,19,155618
testing,3VFJCI1K40OXZUUCAS6S5TUP9EHRGE,begging,5209.184999985155,tangram,isolated,H1.jpg,Y1.jpg,survey-text,20,161330
testing,3J4Q2Z4UTZSTKF5CCILAM6687G5WQH,dance,6182.649999973364,tangram,close,E1.jpg,F1.jpg,survey-text,48,418884
testing,3VFJCI1K40OXZUUCAS6S5TUP9EHRGE,jumping,2632.449999975506,tangram,isolated,E1.jpg,F1.jpg,survey-text,21,164466
testing,3K9FOBBF2I8S6OGLSCMR91UN4YGNLU,ENLOYABLE,8587.000000057742,tangram,close,F1.jpg,W1.jpg,survey-text,18,187666
testing,3J4Q2Z4UTZSTKF5CCILAM6687G5WQH,dance,4419.754999980796,tangram,close,F1.jpg,W1.jpg,survey-text,49,423824
testing,3K9FOBBF2I8S6OGLSCMR91UN4YGNLU,,2823.0000000912696,,,,,html-button-response,19,190994
testing,3VFJCI1K40OXZUUCAS6S5TUP9EHRGE,excited,5052.790000045206,tangram,isolated,F1.jpg,W1.jpg,survey-text,22,170026
testing,3J4Q2Z4UTZSTKF5CCILAM6687G5WQH,human,5171.4800000190735,tangram,close,G1.jpg,M1.jpg,survey-text,50,429505
testing,3K9FOBBF2I8S6OGLSCMR91UN4YGNLU,RUN,5913.99999987334,tangram,far,A1.jpg,D1.jpg,survey-text,20,197411
testing,3VFJCI1K40OXZUUCAS6S5TUP9EHRGE,standing,4568.090000015218,tangram,isolated,G1.jpg,M1.jpg,survey-text,23,175098
testing,3VFJCI1K40OXZUUCAS6S5TUP9EHRGE,asking,2721.635000023525,tangram,isolated,I1.jpg,J1.jpg,survey-text,24,178322
testing,3K9FOBBF2I8S6OGLSCMR91UN4YGNLU,SAD,4131.000000052154,tangram,far,B1.jpg,O1.jpg,survey-text,21,202053
testing,3J4Q2Z4UTZSTKF5CCILAM6687G5WQH,step,6227.264999994077,tangram,close,A1.jpg,A2.jpg,survey-text,51,436243
testing,3VFJCI1K40OXZUUCAS6S5TUP9EHRGE,leaning,3385.3200000012293,tangram,isolated,K1.jpg,T1.jpg,survey-text,25,182211
testing,3J4Q2Z4UTZSTKF5CCILAM6687G5WQH,pray,6244.030000001658,tangram,close,I1.jpg,J1.jpg,survey-text,52,443000
testing,3VFJCI1K40OXZUUCAS6S5TUP9EHRGE,running,3503.8449999992736,tangram,isolated,A1.jpg,A2.jpg,survey-text,26,186219
testing,3K9FOBBF2I8S6OGLSCMR91UN4YGNLU,SITTING,9087.000000057742,tangram,far,G1.jpg,N1.jpg,survey-text,22,211653
testing,3VFJCI1K40OXZUUCAS6S5TUP9EHRGE,sad,1922.0299999578856,tangram,isolated,B1.jpg,P1.jpg,survey-text,27,188644
testing,3VFJCI1K40OXZUUCAS6S5TUP9EHRGE,,1209.340000001248,,,,,html-button-response,28,190354
testing,3K9FOBBF2I8S6OGLSCMR91UN4YGNLU,BEGGER,4476.9999999552965,tangram,far,I1.jpg,R1.jpg,survey-text,23,216641
testing,3J4Q2Z4UTZSTKF5CCILAM6687G5WQH,pray,7296.009999990929,tangram,close,H1.jpg,Y1.jpg,survey-text,53,450823
testing,3VFJCI1K40OXZUUCAS6S5TUP9EHRGE,bear,3992.0450000208803,familiar,isolated,grizzlybear.jpg,polarbear.jpg,survey-text,29,194850
testing,3K9FOBBF2I8S6OGLSCMR91UN4YGNLU,STANDING,6566.999999806285,tangram,far,K1.jpg,V1.jpg,survey-text,24,223743
testing,3VFJCI1K40OXZUUCAS6S5TUP9EHRGE,goldfish,5801.5550000127405,familiar,isolated,goldfish.jpg,swordfish.jpg,survey-text,30,201154
testing,3J4Q2Z4UTZSTKF5CCILAM6687G5WQH,stand,9624.959999986459,tangram,close,B1.jpg,P1.jpg,survey-text,54,460958
testing,3VFJCI1K40OXZUUCAS6S5TUP9EHRGE,candy,8121.6199999907985,familiar,isolated,mnms.jpg,gummybears.jpg,survey-text,31,209779
testing,3VFJCI1K40OXZUUCAS6S5TUP9EHRGE,Honda,3087.455000029877,familiar,isolated,sedan.jpg,sportscar.jpg,survey-text,32,213371
testing,3K9FOBBF2I8S6OGLSCMR91UN4YGNLU,ENJOYABLE,15709.000000031665,tangram,far,F1.jpg,C1.jpg,survey-text,25,239978
testing,3VFJCI1K40OXZUUCAS6S5TUP9EHRGE,bird,4089.914999960456,familiar,isolated,sparrow.jpg,eagle.jpg,survey-text,33,217964
testing,3VFJCI1K40OXZUUCAS6S5TUP9EHRGE,shirt,3251.8050000071526,familiar,isolated,poloshirt.jpg,hawaiishirt.jpg,survey-text,34,221723
testing,3VFJCI1K40OXZUUCAS6S5TUP9EHRGE,table,2824.979999975767,familiar,isolated,diningtable.jpg,picnictable.jpg,survey-text,35,225051
testing,3K9FOBBF2I8S6OGLSCMR91UN4YGNLU,ENJOYABLE,7897.000000113621,tangram,far,E1.jpg,C2.jpg,survey-text,26,248395
testing,3VFJCI1K40OXZUUCAS6S5TUP9EHRGE,dog,2920.5349999829195,familiar,isolated,germanshepherd.jpg,pug.jpg,survey-text,36,228475
testing,3VFJCI1K40OXZUUCAS6S5TUP9EHRGE,,1073.8050000509247,,,,,html-button-response,37,230051
testing,3K9FOBBF2I8S6OGLSCMR91UN4YGNLU,SITTING,6393.999999854714,tangram,far,H1.jpg,A2.jpg,survey-text,27,255295
testing,3K9FOBBF2I8S6OGLSCMR91UN4YGNLU,,3580.000000074506,,,,,html-button-response,28,259377
testing,3VFJCI1K40OXZUUCAS6S5TUP9EHRGE,leaning,7159.795000043232,tangram,close,K1.jpg,T1.jpg,survey-text,38,237714
testing,3K9FOBBF2I8S6OGLSCMR91UN4YGNLU,BENCH,5760.000000009313,familiar,close,diningtable.jpg,picnictable.jpg,survey-text,29,265650
testing,3VFJCI1K40OXZUUCAS6S5TUP9EHRGE,jumping,4978.275000001304,tangram,close,E1.jpg,F1.jpg,survey-text,39,243196
testing,3K9FOBBF2I8S6OGLSCMR91UN4YGNLU,SHIRT,4126.000000163913,familiar,close,poloshirt.jpg,hawaiishirt.jpg,survey-text,30,270293
testing,3VFJCI1K40OXZUUCAS6S5TUP9EHRGE,sad,5657.14999998454,tangram,close,G1.jpg,M1.jpg,survey-text,40,249355
testing,3K9FOBBF2I8S6OGLSCMR91UN4YGNLU,FISH,2628.000000026077,familiar,close,goldfish.jpg,swordfish.jpg,survey-text,31,273435
testing,3K9FOBBF2I8S6OGLSCMR91UN4YGNLU,DOG,2689.9999999441206,familiar,close,germanshepherd.jpg,pug.jpg,survey-text,32,276637
testing,3K9FOBBF2I8S6OGLSCMR91UN4YGNLU,BIRD,3682.9999999608845,familiar,close,sparrow.jpg,eagle.jpg,survey-text,33,280827
testing,3K9FOBBF2I8S6OGLSCMR91UN4YGNLU,BEAR,2776.0000000707805,familiar,close,grizzlybear.jpg,polarbear.jpg,survey-text,34,284114
testing,3VFJCI1K40OXZUUCAS6S5TUP9EHRGE,excited,16447.67000002321,tangram,close,F1.jpg,W1.jpg,survey-text,41,266307
testing,3K9FOBBF2I8S6OGLSCMR91UN4YGNLU,CHOCOLATE,5751.999999862164,familiar,close,mnms.jpg,gummybears.jpg,survey-text,35,290379
testing,3K9FOBBF2I8S6OGLSCMR91UN4YGNLU,CAR,2123.999999836087,familiar,close,sedan.jpg,sportscar.jpg,survey-text,36,293032
testing,3VFJCI1K40OXZUUCAS6S5TUP9EHRGE,running,7680.6349999969825,tangram,close,A1.jpg,A2.jpg,survey-text,42,274491
testing,3K9FOBBF2I8S6OGLSCMR91UN4YGNLU,,5127.999999793246,,,,,html-button-response,37,298669
testing,3K9FOBBF2I8S6OGLSCMR91UN4YGNLU,DOG,2452.999999979511,familiar,far,germanshepherd.jpg,cow.jpg,survey-text,38,301634
testing,3VFJCI1K40OXZUUCAS6S5TUP9EHRGE,sad,3976.5449999831617,tangram,close,B1.jpg,P1.jpg,survey-text,43,278971
testing,3K9FOBBF2I8S6OGLSCMR91UN4YGNLU,CHOCOLATE,3254.00000018999,familiar,far,mnms.jpg,pretzels.jpg,survey-text,39,305400
testing,3VFJCI1K40OXZUUCAS6S5TUP9EHRGE,begging,3664.1149999923073,tangram,close,H1.jpg,Y1.jpg,survey-text,44,283139
testing,3K9FOBBF2I8S6OGLSCMR91UN4YGNLU,SHIRT,2913.99999987334,familiar,far,poloshirt.jpg,dress.jpg,survey-text,40,308829
testing,3VFJCI1K40OXZUUCAS6S5TUP9EHRGE,asking,2312.0749999652617,tangram,close,I1.jpg,J1.jpg,survey-text,45,285954
testing,3VFJCI1K40OXZUUCAS6S5TUP9EHRGE,,1051.450000028126,,,,,html-button-response,46,287507
testing,3K9FOBBF2I8S6OGLSCMR91UN4YGNLU,BIRD,3330.000000074506,familiar,far,sparrow.jpg,squirrel.jpg,survey-text,41,312679
testing,3VFJCI1K40OXZUUCAS6S5TUP9EHRGE,blue,4632.159999979194,familiar,far,sedan.jpg,firetruck.jpg,survey-text,47,292643
testing,3K9FOBBF2I8S6OGLSCMR91UN4YGNLU,BENCH,2859.999999869615,familiar,far,diningtable.jpg,wardrobe.jpg,survey-text,42,316048
testing,3K9FOBBF2I8S6OGLSCMR91UN4YGNLU,BEAR,1989.9999999906868,familiar,far,grizzlybear.jpg,lion.jpg,survey-text,43,318548
testing,3VFJCI1K40OXZUUCAS6S5TUP9EHRGE,fish,2536.725000012666,familiar,far,goldfish.jpg,iguana.jpg,survey-text,48,295683
testing,3K9FOBBF2I8S6OGLSCMR91UN4YGNLU,FISH,2285.999999847263,familiar,far,goldfish.jpg,iguana.jpg,survey-text,44,321345
testing,3VFJCI1K40OXZUUCAS6S5TUP9EHRGE,candy,3399.814999953378,familiar,far,mnms.jpg,pretzels.jpg,survey-text,49,299586
testing,3K9FOBBF2I8S6OGLSCMR91UN4YGNLU,CAR,1927.9999998398125,familiar,far,sedan.jpg,firetruck.jpg,survey-text,45,323779
testing,3VFJCI1K40OXZUUCAS6S5TUP9EHRGE,shirt,2160.9499999904074,familiar,far,poloshirt.jpg,dress.jpg,survey-text,50,302251
testing,3K9FOBBF2I8S6OGLSCMR91UN4YGNLU,,1894.9999997857958,,,,,html-button-response,46,326175
testing,3VFJCI1K40OXZUUCAS6S5TUP9EHRGE,bear,1913.5999999707565,familiar,far,grizzlybear.jpg,lion.jpg,survey-text,51,304674
testing,3VFJCI1K40OXZUUCAS6S5TUP9EHRGE,bird,1968.3300000033341,familiar,far,sparrow.jpg,squirrel.jpg,survey-text,52,307146
testing,3VFJCI1K40OXZUUCAS6S5TUP9EHRGE,table,1760.2150000166148,familiar,far,diningtable.jpg,wardrobe.jpg,survey-text,53,309410
testing,3VFJCI1K40OXZUUCAS6S5TUP9EHRGE,dog,1449.544999981299,familiar,far,germanshepherd.jpg,cow.jpg,survey-text,54,311363
testing,3K9FOBBF2I8S6OGLSCMR91UN4YGNLU,BEGGING,8293.00000006333,tangram,isolated,K1.jpg,T1.jpg,survey-text,47,334979
testing,3K9FOBBF2I8S6OGLSCMR91UN4YGNLU,SITTING,3145.0000000186265,tangram,isolated,G1.jpg,M1.jpg,survey-text,48,338637
testing,3K9FOBBF2I8S6OGLSCMR91UN4YGNLU,ENJOYABLE ,7101.9999999552965,tangram,isolated,F1.jpg,W1.jpg,survey-text,49,346252
testing,3K9FOBBF2I8S6OGLSCMR91UN4YGNLU,BEGGING,3719.9999999720603,tangram,isolated,I1.jpg,J1.jpg,survey-text,50,350476
testing,3K9FOBBF2I8S6OGLSCMR91UN4YGNLU,WALKING,6614.999999990687,tangram,isolated,A1.jpg,A2.jpg,survey-text,51,357637
testing,3K9FOBBF2I8S6OGLSCMR91UN4YGNLU,BEGGING,7554.000000003725,tangram,isolated,H1.jpg,Y1.jpg,survey-text,52,365698
testing,3K9FOBBF2I8S6OGLSCMR91UN4YGNLU,ENJOYABLE,5503.000000026077,tangram,isolated,E1.jpg,F1.jpg,survey-text,53,371716
testing,3K9FOBBF2I8S6OGLSCMR91UN4YGNLU,SA,2064.0000000130385,tangram,isolated,B1.jpg,P1.jpg,survey-text,54,374294
testing,33M4IA01QHQ8LGP2Z26WTFUKC4FXRE,,24020.690000004834,,,,,html-button-response,0,24023
testing,33M4IA01QHQ8LGP2Z26WTFUKC4FXRE,,7425.965000002179,,,,,html-button-response,1,32455
testing,33M4IA01QHQ8LGP2Z26WTFUKC4FXRE,thin,19450.324999997974,tangram,close,H1.jpg,Y1.jpg,survey-text,2,52410
testing,33M4IA01QHQ8LGP2Z26WTFUKC4FXRE,tall,31220.215000008466,tangram,close,K1.jpg,T1.jpg,survey-text,3,84133
testing,33M4IA01QHQ8LGP2Z26WTFUKC4FXRE,big,15673.865000004298,tangram,close,F1.jpg,W1.jpg,survey-text,4,100312
testing,33M4IA01QHQ8LGP2Z26WTFUKC4FXRE,jump,5631.664999993518,tangram,close,E1.jpg,F1.jpg,survey-text,5,106448
testing,33M4IA01QHQ8LGP2Z26WTFUKC4FXRE,sad,7552.874999993946,tangram,close,B1.jpg,P1.jpg,survey-text,6,114505
testing,33M4IA01QHQ8LGP2Z26WTFUKC4FXRE,bald,20338.53999999701,tangram,close,A1.jpg,A2.jpg,survey-text,7,135347
testing,33M4IA01QHQ8LGP2Z26WTFUKC4FXRE,bent,7769.795000000158,tangram,close,I1.jpg,J1.jpg,survey-text,8,143620
testing,33M4IA01QHQ8LGP2Z26WTFUKC4FXRE,kneel,5434.045000001788,tangram,close,G1.jpg,M1.jpg,survey-text,9,149557
testing,33M4IA01QHQ8LGP2Z26WTFUKC4FXRE,,2281.3749999913853,,,,,html-button-response,10,152341
testing,33M4IA01QHQ8LGP2Z26WTFUKC4FXRE,dog,6521.219999995083,familiar,far,germanshepherd.jpg,cow.jpg,survey-text,11,159366
testing,33M4IA01QHQ8LGP2Z26WTFUKC4FXRE,chocolate,6674.53000000387,familiar,far,mnms.jpg,pretzels.jpg,survey-text,12,166543
testing,33M4IA01QHQ8LGP2Z26WTFUKC4FXRE,fish,2631.22999999905,familiar,far,goldfish.jpg,iguana.jpg,survey-text,13,169679
testing,33M4IA01QHQ8LGP2Z26WTFUKC4FXRE,table,2441.3300000014715,familiar,far,diningtable.jpg,wardrobe.jpg,survey-text,14,172623
testing,33M4IA01QHQ8LGP2Z26WTFUKC4FXRE,car,1945.544999995036,familiar,far,sedan.jpg,firetruck.jpg,survey-text,15,175072
testing,33M4IA01QHQ8LGP2Z26WTFUKC4FXRE,shirt,4281.784999999218,familiar,far,poloshirt.jpg,dress.jpg,survey-text,16,179857
testing,33M4IA01QHQ8LGP2Z26WTFUKC4FXRE,bird,2215.299999996205,familiar,far,sparrow.jpg,squirrel.jpg,survey-text,17,182577
testing,33M4IA01QHQ8LGP2Z26WTFUKC4FXRE,bear,2616.504999998142,familiar,far,grizzlybear.jpg,lion.jpg,survey-text,18,185697
testing,33M4IA01QHQ8LGP2Z26WTFUKC4FXRE,,4938.234999994165,,,,,html-button-response,19,191137
testing,33M4IA01QHQ8LGP2Z26WTFUKC4FXRE,bear,2754.144999998971,familiar,isolated,grizzlybear.jpg,polarbear.jpg,survey-text,20,194394
testing,33M4IA01QHQ8LGP2Z26WTFUKC4FXRE,fish,1904.515000001993,familiar,isolated,goldfish.jpg,swordfish.jpg,survey-text,21,196803
testing,33M4IA01QHQ8LGP2Z26WTFUKC4FXRE,dog,2977.5250000093365,familiar,isolated,germanshepherd.jpg,pug.jpg,survey-text,22,200283
testing,3HYA4D452S8AHAHWKIL9M0M5W71F2O,,14317.04500000069,,,,,html-button-response,0,14320
testing,33M4IA01QHQ8LGP2Z26WTFUKC4FXRE,bird,2299.4999999937136,familiar,isolated,sparrow.jpg,eagle.jpg,survey-text,23,203092
testing,33M4IA01QHQ8LGP2Z26WTFUKC4FXRE,car,2529.6550000057323,familiar,isolated,sedan.jpg,sportscar.jpg,survey-text,24,206124
testing,33M4IA01QHQ8LGP2Z26WTFUKC4FXRE,shirt,1384.1950000060024,familiar,isolated,poloshirt.jpg,hawaiishirt.jpg,survey-text,25,208012
testing,3HYA4D452S8AHAHWKIL9M0M5W71F2O,,5649.26000000014,,,,,html-button-response,1,20975
testing,33M4IA01QHQ8LGP2Z26WTFUKC4FXRE,candy,4504.904999994324,familiar,isolated,mnms.jpg,gummybears.jpg,survey-text,26,213021
testing,33M4IA01QHQ8LGP2Z26WTFUKC4FXRE,table,1585.015000004205,familiar,isolated,diningtable.jpg,picnictable.jpg,survey-text,27,215109
testing,33M4IA01QHQ8LGP2Z26WTFUKC4FXRE,,1883.0800000141608,,,,,html-button-response,28,217494
testing,33M4IA01QHQ8LGP2Z26WTFUKC4FXRE,small,5983.76499999722,familiar,close,sparrow.jpg,eagle.jpg,survey-text,29,223982
testing,3HYA4D452S8AHAHWKIL9M0M5W71F2O,color,17830.205000000205,familiar,far,poloshirt.jpg,dress.jpg,survey-text,2,39323
testing,33M4IA01QHQ8LGP2Z26WTFUKC4FXRE,chocolate,2817.1149999980116,familiar,close,mnms.jpg,gummybears.jpg,survey-text,30,227302
testing,33M4IA01QHQ8LGP2Z26WTFUKC4FXRE,blue,2281.9049999961862,familiar,close,sedan.jpg,sportscar.jpg,survey-text,31,230087
testing,3HYA4D452S8AHAHWKIL9M0M5W71F2O,bird,12298.404999999548,familiar,far,sparrow.jpg,squirrel.jpg,survey-text,3,52131
testing,33M4IA01QHQ8LGP2Z26WTFUKC4FXRE,seatless,20499.339999994845,familiar,close,diningtable.jpg,picnictable.jpg,survey-text,32,251089
testing,33M4IA01QHQ8LGP2Z26WTFUKC4FXRE,big,2760.4100000025937,familiar,close,germanshepherd.jpg,pug.jpg,survey-text,33,254354
testing,3HYA4D452S8AHAHWKIL9M0M5W71F2O,table,15254.684999999881,familiar,far,diningtable.jpg,wardrobe.jpg,survey-text,4,67904
testing,33M4IA01QHQ8LGP2Z26WTFUKC4FXRE,brown,2502.4149999953806,familiar,close,grizzlybear.jpg,polarbear.jpg,survey-text,34,257362
testing,33M4IA01QHQ8LGP2Z26WTFUKC4FXRE,gold,4376.660000008997,familiar,close,goldfish.jpg,swordfish.jpg,survey-text,35,262243
testing,3HYA4D452S8AHAHWKIL9M0M5W71F2O,gems,8543.384999999937,familiar,far,mnms.jpg,pretzels.jpg,survey-text,5,76970
testing,33M4IA01QHQ8LGP2Z26WTFUKC4FXRE,plain,2976.9800000067335,familiar,close,poloshirt.jpg,hawaiishirt.jpg,survey-text,36,265723
testing,33M4IA01QHQ8LGP2Z26WTFUKC4FXRE,,1697.439999989001,,,,,html-button-response,37,267923
testing,3HYA4D452S8AHAHWKIL9M0M5W71F2O,bear,9147.934999999954,familiar,far,grizzlybear.jpg,lion.jpg,survey-text,6,86630
testing,33M4IA01QHQ8LGP2Z26WTFUKC4FXRE,walk,7874.339999994845,tangram,isolated,B1.jpg,P1.jpg,survey-text,38,276301
testing,33M4IA01QHQ8LGP2Z26WTFUKC4FXRE,bent,9881.9749999966,tangram,isolated,K1.jpg,T1.jpg,survey-text,39,286686
testing,3HYA4D452S8AHAHWKIL9M0M5W71F2O,fish,14872.684999999357,familiar,far,goldfish.jpg,iguana.jpg,survey-text,7,102039
testing,33M4IA01QHQ8LGP2Z26WTFUKC4FXRE,run,2873.860000006971,tangram,isolated,A1.jpg,A2.jpg,survey-text,40,290062
testing,33M4IA01QHQ8LGP2Z26WTFUKC4FXRE,jump,3033.8950000004843,tangram,isolated,E1.jpg,F1.jpg,survey-text,41,293599
testing,3HYA4D452S8AHAHWKIL9M0M5W71F2O,dog,8680.844999999856,familiar,far,germanshepherd.jpg,cow.jpg,survey-text,8,111240
testing,33M4IA01QHQ8LGP2Z26WTFUKC4FXRE,bow,5497.1000000077765,tangram,isolated,I1.jpg,J1.jpg,survey-text,42,299599
testing,33M4IA01QHQ8LGP2Z26WTFUKC4FXRE,kneel,2168.5600000055274,tangram,isolated,G1.jpg,M1.jpg,survey-text,43,302272
testing,3HYA4D452S8AHAHWKIL9M0M5W71F2O,car,5352.354999999996,familiar,far,sedan.jpg,firetruck.jpg,survey-text,9,117105
testing,33M4IA01QHQ8LGP2Z26WTFUKC4FXRE,run,3057.4950000009267,tangram,isolated,F1.jpg,W1.jpg,survey-text,44,305832
testing,3HYA4D452S8AHAHWKIL9M0M5W71F2O,,4023.409999999785,,,,,html-button-response,10,121637
testing,33M4IA01QHQ8LGP2Z26WTFUKC4FXRE,hold,5850.210000004154,tangram,isolated,H1.jpg,Y1.jpg,survey-text,45,312185
testing,33M4IA01QHQ8LGP2Z26WTFUKC4FXRE,,2170.750000004773,,,,,html-button-response,46,314857
testing,3HYA4D452S8AHAHWKIL9M0M5W71F2O,color,10976.004999999539,familiar,close,sedan.jpg,sportscar.jpg,survey-text,11,133122
testing,33M4IA01QHQ8LGP2Z26WTFUKC4FXRE,stand,5551.47500000021,tangram,far,H1.jpg,A2.jpg,survey-text,47,320913
testing,33M4IA01QHQ8LGP2Z26WTFUKC4FXRE,stationary,7042.290000012144,tangram,far,I1.jpg,R1.jpg,survey-text,48,328458
testing,33M4IA01QHQ8LGP2Z26WTFUKC4FXRE,run,3360.0850000075297,tangram,far,F1.jpg,C1.jpg,survey-text,49,332323
testing,33M4IA01QHQ8LGP2Z26WTFUKC4FXRE,walk,2513.630000001285,tangram,far,B1.jpg,O1.jpg,survey-text,50,335339
