"","iterationName","utterance","rt","target_type","competitor_type","target","foil","trial_type","trial_index","time_elapsed","anonymized_id","utt_length","clean_utt"
"1","testing","table",4867.21000000012,"familiar","isolated","diningtable.jpg","picnictable.jpg","survey-text",2,19330,24,5,"table"
"2","testing","candy",3957.51000000018,"familiar","isolated","mnms.jpg","gummybears.jpg","survey-text",3,23805,24,5,"candy"
"3","testing","bird",3667.13499999992,"familiar","isolated","sparrow.jpg","eagle.jpg","survey-text",4,27994,24,4,"bird"
"4","testing","shirt",4731.37999999995,"familiar","isolated","poloshirt.jpg","hawaiishirt.jpg","survey-text",5,33241,24,5,"shirt"
"5","testing","car",3854.32500000002,"familiar","isolated","sedan.jpg","sportscar.jpg","survey-text",6,37609,24,3,"car"
"6","testing","bear",4646.65000000013,"familiar","isolated","grizzlybear.jpg","polarbear.jpg","survey-text",7,42768,24,4,"bear"
"7","testing","goldfish",5905.00499999984,"familiar","isolated","goldfish.jpg","swordfish.jpg","survey-text",8,49188,24,8,"goldfish"
"8","testing","dog",5718.73000000005,"familiar","isolated","germanshepherd.jpg","pug.jpg","survey-text",9,55422,24,3,"dog"
"9","testing","fish",11536.64,"familiar","close","goldfish.jpg","swordfish.jpg","survey-text",11,71831,24,4,"fish"
"10","testing","solid",7104.77499999979,"familiar","close","poloshirt.jpg","hawaiishirt.jpg","survey-text",12,79448,24,5,"solid"
"11","testing","shepherd",7542.91499999999,"familiar","close","germanshepherd.jpg","pug.jpg","survey-text",13,87503,24,8,"shepherd"
"12","testing","grizzly",7273.80000000016,"familiar","close","grizzlybear.jpg","polarbear.jpg","survey-text",14,95302,24,7,"grizzly"
"13","testing","interior",9399.53999999989,"familiar","close","diningtable.jpg","picnictable.jpg","survey-text",15,105215,24,8,"interior"
"14","testing","practical",13994.715,"familiar","close","sedan.jpg","sportscar.jpg","survey-text",16,119721,24,9,"practical"
"15","testing","common",5537.73999999998,"familiar","close","sparrow.jpg","eagle.jpg","survey-text",17,125774,24,6,"common"
"16","testing","classic",14001.765,"familiar","close","mnms.jpg","gummybears.jpg","survey-text",18,140285,24,7,"classic"
"17","testing","shirt",6816.91499999989,"familiar","far","poloshirt.jpg","dress.jpg","survey-text",20,150263,24,5,"shirt"
"18","testing","bird",6108.76500000016,"familiar","far","sparrow.jpg","squirrel.jpg","survey-text",21,156886,24,4,"bird"
"19","testing","candy",6537.94999999992,"familiar","far","mnms.jpg","pretzels.jpg","survey-text",22,163930,24,5,"candy"
"20","testing","dog",5129.81500000003,"familiar","far","germanshepherd.jpg","cow.jpg","survey-text",23,169567,24,3,"dog"
"21","testing","car",3712.62000000002,"familiar","far","sedan.jpg","firetruck.jpg","survey-text",24,173793,24,3,"car"
"22","testing","table",4901.71499999997,"familiar","far","diningtable.jpg","wardrobe.jpg","survey-text",25,179205,24,5,"table"
"23","testing","grizzly",5968.16999999987,"familiar","far","grizzlybear.jpg","lion.jpg","survey-text",26,185692,24,7,"grizzly"
"24","testing","goldfish",9008.51499999998,"familiar","far","goldfish.jpg","iguana.jpg","survey-text",27,195211,24,8,"goldfish"
"25","testing","person",8541.84499999997,"tangram","close","H1.jpg","Y1.jpg","survey-text",29,206776,24,6,"person"
"26","testing","jump",5588.22999999984,"tangram","close","E1.jpg","F1.jpg","survey-text",30,212868,24,4,"jump"
"27","testing","catch",8749.54000000004,"tangram","close","F1.jpg","W1.jpg","survey-text",31,222130,24,5,"catch"
"28","testing","walk",6634.15000000008,"tangram","close","B1.jpg","P1.jpg","survey-text",32,229268,24,4,"walk"
"29","testing","sit",7013.22999999981,"tangram","close","G1.jpg","M1.jpg","survey-text",33,236796,24,3,"sit"
"30","testing","run",4289.52499999994,"tangram","close","A1.jpg","A2.jpg","survey-text",34,241603,24,3,"run"
"31","testing","offer",5343.19499999992,"tangram","close","I1.jpg","J1.jpg","survey-text",35,247463,24,5,"offer"
"32","testing","bow",8801.94499999995,"tangram","close","K1.jpg","T1.jpg","survey-text",36,256779,24,3,"bow"
"33","testing","sit",5492.51000000007,"tangram","far","G1.jpg","N1.jpg","survey-text",38,264988,24,3,"sit"
"34","testing","offer",3898.70500000007,"tangram","far","I1.jpg","R1.jpg","survey-text",39,269391,24,5,"offer"
"35","testing","hold",8092.79500000004,"tangram","far","H1.jpg","A2.jpg","survey-text",40,277996,24,4,"hold"
"36","testing","run",4907.59500000015,"tangram","far","A1.jpg","D1.jpg","survey-text",41,283412,24,3,"run"
"37","testing","offer",4212.47999999992,"tangram","far","K1.jpg","V1.jpg","survey-text",42,288130,24,5,"offer"
"38","testing","jump",5162.9250000001,"tangram","far","E1.jpg","C2.jpg","survey-text",43,293801,24,4,"jump"
"39","testing","catch",5273.53999999992,"tangram","far","F1.jpg","C1.jpg","survey-text",44,299578,24,5,"catch"
"40","testing","walk",4680.28500000015,"tangram","far","B1.jpg","O1.jpg","survey-text",45,304772,24,4,"walk"
"41","testing","walk",6032.2900000001,"tangram","isolated","B1.jpg","P1.jpg","survey-text",47,313717,24,4,"walk"
"42","testing","jump",4270.42499999993,"tangram","isolated","E1.jpg","F1.jpg","survey-text",48,318497,24,4,"jump"
"43","testing","hold",3902.44000000006,"tangram","isolated","H1.jpg","Y1.jpg","survey-text",49,322910,24,4,"hold"
"44","testing","run",4042.43000000023,"tangram","isolated","A1.jpg","A2.jpg","survey-text",50,327457,24,3,"run"
"45","testing","offer",6848.90000000014,"tangram","isolated","I1.jpg","J1.jpg","survey-text",51,334822,24,5,"offer"
"46","testing","offer",4550.28500000003,"tangram","isolated","K1.jpg","T1.jpg","survey-text",52,339882,24,5,"offer"
"47","testing","catch",4700.56,"tangram","isolated","F1.jpg","W1.jpg","survey-text",53,345097,24,5,"catch"
"48","testing","sit",3699.91499999992,"tangram","isolated","G1.jpg","M1.jpg","survey-text",54,349311,24,3,"sit"
"49","testing","m&m's",13513.5850000007,"familiar","close","mnms.jpg","gummybears.jpg","survey-text",2,665047,8,5,"m&m's"
"50","testing","finch",5314.61999999743,"familiar","close","sparrow.jpg","eagle.jpg","survey-text",3,670867,8,5,"finch"
"51","testing","brown",6682.22000000242,"familiar","close","grizzlybear.jpg","polarbear.jpg","survey-text",4,678053,8,5,"brown"
"52","testing","gold",5332.66500000167,"familiar","close","goldfish.jpg","swordfish.jpg","survey-text",5,683890,8,4,"gold"
"53","testing","blue",3366.75000000093,"familiar","close","sedan.jpg","sportscar.jpg","survey-text",6,687761,8,4,"blue"
"54","testing","german",3579.83499999694,"familiar","close","germanshepherd.jpg","pug.jpg","survey-text",7,691845,8,6,"german"
"55","testing","indoor",4798.97999999952,"familiar","close","diningtable.jpg","picnictable.jpg","survey-text",8,697147,8,6,"indoor"
"56","testing","polo",3689.16000000166,"familiar","close","poloshirt.jpg","hawaiishirt.jpg","survey-text",9,701340,8,4,"polo"
"57","testing","run",5644.65500000375,"tangram","far","A1.jpg","D1.jpg","survey-text",11,713561,8,3,"run"
"58","testing","leap",4257.34499999811,"tangram","far","E1.jpg","C2.jpg","survey-text",12,718321,8,4,"leap"
"59","testing","sulk",7512.64000000083,"tangram","far","B1.jpg","O1.jpg","survey-text",13,726337,8,4,"sulk"
"60","testing","lift",4273.54999999795,"tangram","far","F1.jpg","C1.jpg","survey-text",14,731114,8,4,"lift"
"61","testing","pray",6631.8900000042,"tangram","far","H1.jpg","A2.jpg","survey-text",15,738250,8,4,"pray"
"62","testing","sit",5081.97999999532,"tangram","far","G1.jpg","N1.jpg","survey-text",16,743835,8,3,"sit"
"63","testing","eat",4232.08500000334,"tangram","far","I1.jpg","R1.jpg","survey-text",18,769275,8,3,"eat"
"64","testing","sad",8967.10500000324,"tangram","isolated","B1.jpg","P1.jpg","survey-text",20,792314,8,3,"sad"
"65","testing","leap",3620.45000000228,"tangram","isolated","E1.jpg","F1.jpg","survey-text",22,969579,8,4,"leap"
"66","testing","skip",5388.95000000054,"tangram","isolated","A1.jpg","A2.jpg","survey-text",23,975471,8,4,"skip"
"67","testing","lift",9075.24000000558,"tangram","isolated","F1.jpg","W1.jpg","survey-text",24,985051,8,4,"lift"
"68","testing","pray",3755.28000000492,"tangram","isolated","H1.jpg","Y1.jpg","survey-text",25,989310,8,4,"pray"
"69","testing","reach",3704.76000000047,"tangram","isolated","K1.jpg","T1.jpg","survey-text",26,993517,8,5,"reach"
"70","testing","sit",2853.90000000177,"tangram","isolated","G1.jpg","M1.jpg","survey-text",27,996874,8,3,"sit"
"71","testing","shirt",5158.77500000363,"familiar","far","poloshirt.jpg","dress.jpg","survey-text",29,1005012,8,5,"shirt"
"72","testing","table",3072.05000000237,"familiar","far","diningtable.jpg","wardrobe.jpg","survey-text",30,1008587,8,5,"table"
"73","testing","fish",3481.00500000152,"familiar","far","goldfish.jpg","iguana.jpg","survey-text",31,1012572,8,4,"fish"
"74","testing","bear",2882.19499999832,"familiar","far","grizzlybear.jpg","lion.jpg","survey-text",32,1015958,8,4,"bear"
"75","testing","bird",3531.20499999926,"familiar","far","sparrow.jpg","squirrel.jpg","survey-text",33,1019994,8,4,"bird"
"76","testing","car",4956.36999999988,"familiar","far","sedan.jpg","firetruck.jpg","survey-text",35,1060953,8,3,"car"
"77","testing","dog",2975.97500000126,"familiar","far","germanshepherd.jpg","cow.jpg","survey-text",36,1064434,8,3,"dog"
"78","testing","dark",5672.49500000617,"familiar","close","grizzlybear.jpg","polarbear.jpg","survey-text",2,61495,19,4,"dark"
"79","testing","gold",2967.87999999651,"familiar","close","goldfish.jpg","swordfish.jpg","survey-text",3,64966,19,4,"gold"
"80","testing","hard",9930.80000000191,"familiar","close","mnms.jpg","gummybears.jpg","survey-text",4,75414,19,4,"hard"
"81","testing","plain",4735.15500000212,"familiar","close","poloshirt.jpg","hawaiishirt.jpg","survey-text",5,80662,19,5,"plain"
"82","testing","inside",4418.36000001058,"familiar","close","diningtable.jpg","picnictable.jpg","survey-text",6,85598,19,6,"inside"
"83","testing","small",2745.25500000163,"familiar","close","sparrow.jpg","eagle.jpg","survey-text",7,88854,19,5,"small"
"84","testing","commuter",4656.29500000796,"familiar","close","sedan.jpg","sportscar.jpg","survey-text",8,94014,19,8,"commuter"
"85","testing","big",2888.9199999976,"familiar","close","germanshepherd.jpg","pug.jpg","survey-text",9,97414,19,3,"big"
"86","testing","abstract",6609.94000000937,"tangram","close","F1.jpg","W1.jpg","survey-text",11,107966,19,8,"abstract"
"87","testing","man",3810.21499999042,"tangram","close","H1.jpg","Y1.jpg","survey-text",12,112295,19,3,"man"
"88","testing","giving",4700.90999999957,"tangram","close","I1.jpg","J1.jpg","survey-text",13,117510,19,6,"give"
"89","testing","thin",6289.73499999847,"tangram","close","A1.jpg","A2.jpg","survey-text",14,124310,19,4,"thin"
"90","testing","leaning",3260.4250000004,"tangram","close","B1.jpg","P1.jpg","survey-text",15,128078,19,7,"lean"
"91","testing","lean",7288.82500000321,"tangram","close","K1.jpg","T1.jpg","survey-text",39,1134221,8,4,"lean"
"92","testing","leap",4906.07499999902,"tangram","close","E1.jpg","F1.jpg","survey-text",40,1139630,8,4,"leap"
"93","testing","jumping",7338.21500001068,"tangram","close","E1.jpg","F1.jpg","survey-text",16,135918,19,7,"jump"
"94","testing","sulk",3222.47000000067,"tangram","close","B1.jpg","P1.jpg","survey-text",41,1143356,8,4,"sulk"
"95","testing","slim",3252.46499999776,"tangram","close","G1.jpg","M1.jpg","survey-text",17,139679,19,4,"slim"
"96","testing","reach",3343.71000000089,"tangram","close","F1.jpg","W1.jpg","survey-text",42,1147203,8,5,"reach"
"97","testing","leaning",3751.00499999826,"tangram","close","K1.jpg","T1.jpg","survey-text",18,143934,19,7,"lean"
"98","testing","offer",3312.21499999799,"tangram","close","H1.jpg","Y1.jpg","survey-text",43,1151019,8,5,"offer"
"99","testing","jump",2939.94500000554,"tangram","far","E1.jpg","C2.jpg","survey-text",20,150094,19,4,"jump"
"100","testing","stand",2815.74499999988,"tangram","far","G1.jpg","N1.jpg","survey-text",21,153422,19,5,"stand"
"101","testing","straight",6052.00500000501,"tangram","far","H1.jpg","A2.jpg","survey-text",22,159983,19,8,"straight"
"102","testing","running",6334.64499999536,"tangram","far","A1.jpg","D1.jpg","survey-text",23,166830,19,7,"run"
"103","testing","leaning",2382.55500000378,"tangram","far","K1.jpg","V1.jpg","survey-text",24,169719,19,7,"lean"
"104","testing","running",4079.16500000283,"tangram","far","F1.jpg","C1.jpg","survey-text",25,174310,19,7,"run"
"105","testing","walking",3785.14500000165,"tangram","far","B1.jpg","O1.jpg","survey-text",26,178598,19,7,"walk"
"106","testing","giving",2426.93000000145,"tangram","far","I1.jpg","R1.jpg","survey-text",27,181534,19,6,"give"
"107","testing","table",5360.5349999998,"familiar","isolated","diningtable.jpg","picnictable.jpg","survey-text",29,190334,19,5,"table"
"108","testing","bend",3869.10999999964,"tangram","close","I1.jpg","J1.jpg","survey-text",45,1197613,8,4,"bend"
"109","testing","car",4973.0750000017,"familiar","isolated","sedan.jpg","sportscar.jpg","survey-text",30,195815,19,3,"car"
"110","testing","dog",1807.92500000098,"familiar","isolated","germanshepherd.jpg","pug.jpg","survey-text",31,198135,19,3,"dog"
"111","testing","bird",2424.47999998694,"familiar","isolated","sparrow.jpg","eagle.jpg","survey-text",32,201063,19,4,"bird"
"112","testing","small",5944.41500000516,"familiar","isolated","sparrow.jpg","eagle.jpg","survey-text",47,1207045,8,5,"small"
"113","testing","bear",1832.43499998935,"familiar","isolated","grizzlybear.jpg","polarbear.jpg","survey-text",33,203407,19,4,"bear"
"114","testing","colorful",3758.91000000411,"familiar","isolated","mnms.jpg","gummybears.jpg","survey-text",48,1211307,8,8,"colorful"
"115","testing","goldfish",3275.72000000509,"familiar","isolated","goldfish.jpg","swordfish.jpg","survey-text",34,207199,19,8,"goldfish"
"116","testing","candy",2569.9900000036,"familiar","isolated","mnms.jpg","gummybears.jpg","survey-text",35,210271,19,5,"candy"
"117","testing","shirt",1620.83500000881,"familiar","isolated","poloshirt.jpg","hawaiishirt.jpg","survey-text",36,212400,19,5,"shirt"
"118","testing","gold",4901.19499999855,"familiar","far","goldfish.jpg","iguana.jpg","survey-text",38,221399,19,4,"gold"
"119","testing","bear",2013.21999999345,"familiar","far","grizzlybear.jpg","lion.jpg","survey-text",39,223926,19,4,"bear"
"120","testing","candy",3271.97499999602,"familiar","far","mnms.jpg","pretzels.jpg","survey-text",40,227711,19,5,"candy"
"121","testing","shirt",2158.69500000554,"familiar","far","poloshirt.jpg","dress.jpg","survey-text",41,230375,19,5,"shirt"
"122","testing","car",2668.56000000553,"familiar","far","sedan.jpg","firetruck.jpg","survey-text",42,233550,19,3,"car"
"123","testing","bird",1684.6799999912,"familiar","far","sparrow.jpg","squirrel.jpg","survey-text",43,235743,19,4,"bird"
"124","testing","dog",1602.82000000007,"familiar","far","germanshepherd.jpg","cow.jpg","survey-text",44,237862,19,3,"dog"
"125","testing","table",1758.164999992,"familiar","far","diningtable.jpg","wardrobe.jpg","survey-text",45,240134,19,5,"table"
"126","testing","jumping",6797.56500000076,"tangram","isolated","E1.jpg","F1.jpg","survey-text",47,249935,19,7,"jump"
"127","testing","graduate",16778.954999987,"tangram","far","H1.jpg","A2.jpg","survey-text",2,73078,30,8,"graduate"
"128","testing","running",6289.36500000418,"tangram","isolated","F1.jpg","W1.jpg","survey-text",48,256734,19,7,"run"
"129","testing","walking",3268.62000000256,"tangram","isolated","B1.jpg","P1.jpg","survey-text",49,260518,19,7,"walk"
"130","testing","sitting",3273.14999999362,"tangram","isolated","G1.jpg","M1.jpg","survey-text",50,264310,19,7,"sit"
"131","testing","service",10103.8549999939,"tangram","far","K1.jpg","V1.jpg","survey-text",3,83714,30,7,"service"
"132","testing","giving",2694.34999999066,"tangram","isolated","I1.jpg","J1.jpg","survey-text",51,267511,19,6,"give"
"133","testing","running",2629.3549999973,"tangram","isolated","A1.jpg","A2.jpg","survey-text",52,270655,19,7,"run"
"134","testing","seal",6102.10999997798,"tangram","far","G1.jpg","N1.jpg","survey-text",4,90333,30,4,"seal"
"135","testing","leaning",2285.48000000592,"tangram","isolated","K1.jpg","T1.jpg","survey-text",53,273447,19,7,"lean"
"136","testing","standing",2365.67499999364,"tangram","isolated","H1.jpg","Y1.jpg","survey-text",54,276327,19,8,"stand"
"137","testing","skipping",17009.00000002,"tangram","far","A1.jpg","D1.jpg","survey-text",5,107862,30,8,"skip"
"138","testing","flying",6786.88499995042,"tangram","far","E1.jpg","C2.jpg","survey-text",7,171889,30,6,"fly"
"139","testing","sad",5140.75500000035,"tangram","far","B1.jpg","O1.jpg","survey-text",8,177552,30,3,"sad"
"140","testing","waiter",12403.255000012,"tangram","far","I1.jpg","R1.jpg","survey-text",9,190481,30,6,"waiter"
"141","testing","seal",6341.13499999512,"tangram","isolated","G1.jpg","M1.jpg","survey-text",11,202102,30,4,"seal"
"142","testing","flying",6445.03000000259,"tangram","isolated","E1.jpg","F1.jpg","survey-text",12,209056,30,6,"fly"
"143","testing","service",7470.90000001481,"tangram","isolated","H1.jpg","Y1.jpg","survey-text",13,217043,30,7,"service"
"144","testing","skipping",6951.2349999859,"tangram","isolated","A1.jpg","A2.jpg","survey-text",14,224510,30,8,"skip"
"145","testing","sad",4073.80499999272,"tangram","isolated","B1.jpg","P1.jpg","survey-text",15,229101,30,3,"sad"
"146","testing","crouching",7450.02499996917,"tangram","isolated","F1.jpg","W1.jpg","survey-text",16,237059,30,9,"crouch"
"147","testing","waiter",7528.16500002518,"tangram","isolated","I1.jpg","J1.jpg","survey-text",17,245120,30,6,"waiter"
"148","testing","service",11421.1549999891,"tangram","isolated","K1.jpg","T1.jpg","survey-text",18,257058,30,7,"service"
"149","testing","bird",7742.1949999989,"familiar","close","sparrow.jpg","eagle.jpg","survey-text",20,268269,30,4,"bird"
"150","testing","dog",8525.17999999691,"familiar","close","germanshepherd.jpg","pug.jpg","survey-text",21,277320,30,3,"dog"
"151","testing","candy",7208.79000000423,"familiar","close","mnms.jpg","gummybears.jpg","survey-text",22,285044,30,5,"candy"
"152","testing","shirt",5129.28499997361,"familiar","close","poloshirt.jpg","hawaiishirt.jpg","survey-text",23,290690,30,5,"shirt"
"153","testing","bear",6013.67000001483,"familiar","close","grizzlybear.jpg","polarbear.jpg","survey-text",24,297213,30,4,"bear"
"154","testing","table",6615.8900000155,"familiar","close","diningtable.jpg","picnictable.jpg","survey-text",25,304346,30,5,"table"
"155","testing","car",3135.13500004774,"familiar","close","sedan.jpg","sportscar.jpg","survey-text",26,308000,30,3,"car"
"156","testing","goldfish",6230.45499995351,"familiar","close","goldfish.jpg","swordfish.jpg","survey-text",27,314750,30,8,"goldfish"
"157","testing","car",5954.73999995738,"familiar","isolated","sedan.jpg","sportscar.jpg","survey-text",29,485007,30,3,"car"
"158","testing","bear",4257.25999998394,"familiar","isolated","grizzlybear.jpg","polarbear.jpg","survey-text",30,489780,30,4,"bear"
"159","testing","candy",6120.3600000008,"familiar","isolated","mnms.jpg","gummybears.jpg","survey-text",31,496435,30,5,"candy"
"160","testing","dog",4149.28000001237,"familiar","isolated","germanshepherd.jpg","pug.jpg","survey-text",32,501101,30,3,"dog"
"161","testing","shirt",4680.02500000875,"familiar","isolated","poloshirt.jpg","hawaiishirt.jpg","survey-text",33,506303,30,5,"shirt"
"162","testing","bird",4732.84999997122,"familiar","isolated","sparrow.jpg","eagle.jpg","survey-text",34,511562,30,4,"bird"
"163","testing","table",7561.12000002759,"familiar","isolated","diningtable.jpg","picnictable.jpg","survey-text",35,519641,30,5,"table"
"164","testing","goldfish",5466.8749999837,"familiar","isolated","goldfish.jpg","swordfish.jpg","survey-text",36,525629,30,8,"goldfish"
"165","testing","shirt",8793.9100000076,"familiar","far","poloshirt.jpg","dress.jpg","survey-text",38,537415,30,5,"shirt"
"166","testing","bird",6525.71999997599,"familiar","far","sparrow.jpg","squirrel.jpg","survey-text",39,544468,30,4,"bird"
"167","testing","car",4425.40999996709,"familiar","far","sedan.jpg","firetruck.jpg","survey-text",40,549418,30,3,"car"
"168","testing","table",4962.16500003356,"familiar","far","diningtable.jpg","wardrobe.jpg","survey-text",41,554895,30,5,"table"
"169","testing","goldfish",5594.55499995966,"familiar","far","goldfish.jpg","iguana.jpg","survey-text",42,560998,30,8,"goldfish"
"170","testing","bear",4128.36499995319,"familiar","far","grizzlybear.jpg","lion.jpg","survey-text",43,565644,30,4,"bear"
"171","testing","dog",4611.10000003828,"familiar","far","germanshepherd.jpg","cow.jpg","survey-text",44,570777,30,3,"dog"
"172","testing","candy",7182.15999996755,"familiar","far","mnms.jpg","pretzels.jpg","survey-text",45,578485,30,5,"candy"
"173","testing","flying",6248.97999997484,"tangram","close","E1.jpg","F1.jpg","survey-text",47,587076,30,6,"fly"
"174","testing","eat",6751.45500013605,"familiar","far","mnms.jpg","pretzels.jpg","survey-text",2,1781921,25,3,"eat"
"175","testing","service",12570.2850000234,"tangram","close","H1.jpg","Y1.jpg","survey-text",48,600155,30,7,"service"
"176","testing","animal",11511.7949999403,"familiar","far","goldfish.jpg","iguana.jpg","survey-text",3,1793946,25,6,"animal"
"177","testing","service",9080.12500003679,"tangram","close","K1.jpg","T1.jpg","survey-text",49,609760,30,7,"service"
"178","testing","dress",3837.16500014998,"familiar","far","poloshirt.jpg","dress.jpg","survey-text",4,1798292,25,5,"dress"
"179","testing","sad",3519.03000002494,"tangram","close","B1.jpg","P1.jpg","survey-text",50,613805,30,3,"sad"
"180","testing","animal",7823.69500002824,"familiar","far","germanshepherd.jpg","cow.jpg","survey-text",5,1806624,25,6,"animal"
"181","testing","waiter",5464.38000001945,"tangram","close","I1.jpg","J1.jpg","survey-text",51,619802,30,6,"waiter"
"182","testing","birds",5110.24500010535,"familiar","far","sparrow.jpg","squirrel.jpg","survey-text",6,1812243,25,5,"bird"
"183","testing","seal",4561.52500002645,"tangram","close","G1.jpg","M1.jpg","survey-text",52,624880,30,4,"seal"
"184","testing","man",8478.40499994345,"tangram","isolated","E1.jpg","F1.jpg","survey-text",2,16253,26,3,"man"
"185","testing","skipping",5967.9050000268,"tangram","close","A1.jpg","A2.jpg","survey-text",53,631361,30,8,"skip"
"186","testing","bird",4332.51500013284,"tangram","isolated","F1.jpg","W1.jpg","survey-text",3,21106,26,4,"bird"
"187","testing","trasporter",11013.4199999738,"familiar","far","sedan.jpg","firetruck.jpg","survey-text",7,1823781,25,10,"trasporter"
"188","testing","blue",2947.6100000029,"familiar","isolated","poloshirt.jpg","hawaiishirt.jpg","survey-text",50,1825500,8,4,"blue"
"189","testing","crouching",7055.65499997465,"tangram","close","F1.jpg","W1.jpg","survey-text",54,638930,30,9,"crouch"
"190","testing","dog",4784.03500001878,"tangram","isolated","K1.jpg","T1.jpg","survey-text",4,26399,26,3,"dog"
"191","testing","bear",3767.9599999974,"familiar","isolated","grizzlybear.jpg","polarbear.jpg","survey-text",51,1829772,8,4,"bear"
"192","testing","tables",5600.87500000373,"familiar","far","diningtable.jpg","wardrobe.jpg","survey-text",8,1829889,25,6,"table"
"193","testing","woman",5045.91000010259,"tangram","isolated","I1.jpg","J1.jpg","survey-text",5,31956,26,5,"woman"
"194","testing","fish",3816.22500000219,"familiar","isolated","goldfish.jpg","swordfish.jpg","survey-text",52,1834092,8,4,"fish"
"195","testing","animal",5485.69499980658,"familiar","far","grizzlybear.jpg","lion.jpg","survey-text",9,1835887,25,6,"animal"
"196","testing","table",4337.05000000214,"familiar","isolated","diningtable.jpg","picnictable.jpg","survey-text",53,1838932,8,5,"table"
"197","testing","sit",5829.81499982998,"tangram","isolated","G1.jpg","M1.jpg","survey-text",6,38297,26,3,"sit"
"198","testing","car",2952.42000000132,"familiar","isolated","sedan.jpg","sportscar.jpg","survey-text",54,1842388,8,3,"car"
"199","testing","walk",3856.94999992847,"tangram","isolated","B1.jpg","P1.jpg","survey-text",7,42665,26,4,"walk"
"200","testing","art",8057.92500008829,"tangram","close","E1.jpg","F1.jpg","survey-text",11,1846358,25,3,"art"
"201","testing","seal",3867.76499997359,"tangram","close","G1.jpg","M1.jpg","survey-text",2,1654401,27,4,"seal"
"202","testing","man",14355.2649999037,"tangram","close","K1.jpg","T1.jpg","survey-text",12,1861221,25,3,"man"
"203","testing","priest",2969.14500003913,"tangram","close","H1.jpg","Y1.jpg","survey-text",3,1657874,27,6,"priest"
"204","testing","runner",2509.79000004008,"tangram","close","A1.jpg","A2.jpg","survey-text",4,1660907,27,6,"runner"
"205","testing","skyward",6487.15000000084,"tangram","close","F1.jpg","W1.jpg","survey-text",5,1667897,27,7,"skyward"
"206","testing","walk",10941.2649997976,"tangram","close","A1.jpg","A2.jpg","survey-text",13,1872690,25,4,"walk"
"207","testing","jumping",2097.80500002671,"tangram","close","E1.jpg","F1.jpg","survey-text",6,1670501,27,7,"jump"
"208","testing","sad",2197.53499998478,"tangram","close","B1.jpg","P1.jpg","survey-text",7,1673213,27,3,"sad"
"209","testing","dance",8638.98499985225,"tangram","close","F1.jpg","W1.jpg","survey-text",14,1881854,25,5,"dance"
"210","testing","praying",4334.72000004258,"tangram","close","K1.jpg","T1.jpg","survey-text",8,1678053,27,7,"pray"
"211","testing","offering",3085.03499999642,"tangram","close","I1.jpg","J1.jpg","survey-text",9,1681644,27,8,"offer"
"212","testing","goldfish",2139.77000000887,"familiar","close","goldfish.jpg","swordfish.jpg","survey-text",11,1686972,27,8,"goldfish"
"213","testing","standingman",8723.16500009038,"tangram","close","H1.jpg","Y1.jpg","survey-text",15,1891442,25,11,"standingman"
"214","testing","bear",1759.9250000203,"familiar","close","grizzlybear.jpg","polarbear.jpg","survey-text",12,1689243,27,4,"bear"
"215","testing","sad",5112.44500009343,"tangram","close","B1.jpg","P1.jpg","survey-text",16,1897062,25,3,"sad"
"216","testing","dog",3443.75499995658,"familiar","close","germanshepherd.jpg","pug.jpg","survey-text",13,1693193,27,3,"dog"
"217","testing","candy",2518.41499999864,"familiar","close","mnms.jpg","gummybears.jpg","survey-text",14,1696220,27,5,"candy"
"218","testing","solid",4955.79999999609,"familiar","close","poloshirt.jpg","hawaiishirt.jpg","survey-text",15,1701683,27,5,"solid"
"219","testing","beggar",12242.8600001149,"tangram","close","I1.jpg","J1.jpg","survey-text",17,1909812,25,6,"beggar"
"220","testing","dining",5555.28999998933,"familiar","close","diningtable.jpg","picnictable.jpg","survey-text",16,1707747,27,6,"dine"
"221","testing","run",4936.18499999866,"tangram","isolated","A1.jpg","A2.jpg","survey-text",9,112260,26,3,"run"
"222","testing","honda",2516.62499998929,"familiar","close","sedan.jpg","sportscar.jpg","survey-text",17,1710771,27,5,"honda"
"223","testing","sparrow",3709.36000003712,"familiar","close","sparrow.jpg","eagle.jpg","survey-text",18,1714989,27,7,"sparrow"
"224","testing","sad",12243.5149999801,"tangram","close","G1.jpg","M1.jpg","survey-text",18,1922566,25,3,"sad"
"225","testing","balance",5830.26499999687,"tangram","far","A1.jpg","D1.jpg","survey-text",20,1724171,27,7,"balance"
"226","testing","stand",8701.83000015095,"tangram","close","H1.jpg","Y1.jpg","survey-text",11,128812,26,5,"stand"
"227","testing","sad",2488.72500000289,"tangram","far","B1.jpg","O1.jpg","survey-text",21,1727162,27,3,"sad"
"228","testing","running",5897.05000002868,"tangram","far","G1.jpg","N1.jpg","survey-text",20,1932838,25,7,"run"
"229","testing","offering",3480.26499996195,"tangram","far","I1.jpg","R1.jpg","survey-text",22,1731152,27,8,"offer"
"230","testing","priest",3194.57000005059,"tangram","far","H1.jpg","A2.jpg","survey-text",23,1734863,27,6,"priest"
"231","testing","happy",8277.09999983199,"tangram","far","E1.jpg","C2.jpg","survey-text",21,1941626,25,5,"happy"
"232","testing","praying",3035.91500001494,"tangram","far","K1.jpg","V1.jpg","survey-text",24,1738413,27,7,"pray"
"233","testing","run",14268.9049998298,"tangram","close","F1.jpg","W1.jpg","survey-text",12,143598,26,3,"run"
"234","testing","sad",3419.36499997973,"tangram","far","B1.jpg","O1.jpg","survey-text",22,1945559,25,3,"sad"
"235","testing","skyward",2779.61999998661,"tangram","far","F1.jpg","C1.jpg","survey-text",25,1741706,27,7,"skyward"
"236","testing","jumping",2399.65000003576,"tangram","far","E1.jpg","C2.jpg","survey-text",26,1744616,27,7,"jump"
"237","testing","sit",4394.41000018269,"tangram","close","G1.jpg","M1.jpg","survey-text",13,148501,26,3,"sit"
"238","testing","kneeling",3410.75999999885,"tangram","far","G1.jpg","N1.jpg","survey-text",27,1748541,27,8,"kneel"
"239","testing","walk",8538.60500012524,"tangram","far","A1.jpg","D1.jpg","survey-text",23,1954605,25,4,"walk"
"240","testing","dog",8047.89500008337,"tangram","close","K1.jpg","T1.jpg","survey-text",14,158332,26,3,"dog"
"241","testing","praying",4530.97999998135,"tangram","isolated","K1.jpg","T1.jpg","survey-text",29,1755940,27,7,"pray"
"242","testing","priest",2012.31499999994,"tangram","isolated","H1.jpg","Y1.jpg","survey-text",30,1758470,27,6,"priest"
"243","testing","walk",4484.39999995753,"tangram","close","B1.jpg","P1.jpg","survey-text",15,163342,26,4,"walk"
"244","testing","walk",6253.34500009194,"tangram","close","A1.jpg","A2.jpg","survey-text",16,170120,26,4,"walk"
"245","testing","takeanyone",17910.5700000655,"tangram","far","H1.jpg","A2.jpg","survey-text",24,1973033,25,10,"takeanyone"
"246","testing","women",5817.89000006393,"tangram","close","I1.jpg","J1.jpg","survey-text",17,176464,26,5,"woman"
"247","testing","run",5122.99500009976,"tangram","far","K1.jpg","V1.jpg","survey-text",25,1978667,25,3,"run"
"248","testing","fly",6084.73000000231,"tangram","close","E1.jpg","F1.jpg","survey-text",18,184224,26,3,"fly"
"249","testing","please",11427.6250000112,"tangram","far","F1.jpg","C1.jpg","survey-text",26,1991488,25,6,"please"
"250","testing","dog",5994.67499996535,"familiar","far","germanshepherd.jpg","cow.jpg","survey-text",20,195407,26,3,"dog"
"251","testing","run",5178.89500013553,"tangram","far","I1.jpg","R1.jpg","survey-text",27,1997176,25,3,"run"
"252","testing","table",4986.25500011258,"familiar","far","diningtable.jpg","wardrobe.jpg","survey-text",21,200919,26,5,"table"
"253","testing","car",4080.60500002466,"familiar","isolated","sedan.jpg","sportscar.jpg","survey-text",29,2004063,25,3,"car"
"254","testing","bird",3872.49500001781,"familiar","far","sparrow.jpg","squirrel.jpg","survey-text",22,205323,26,4,"bird"
"255","testing","dog",3845.38999991491,"familiar","isolated","germanshepherd.jpg","pug.jpg","survey-text",30,2008415,25,3,"dog"
"256","testing","shirt",3877.17500003055,"familiar","far","poloshirt.jpg","dress.jpg","survey-text",23,209726,26,5,"shirt"
"257","testing","table",3965.13999998569,"familiar","isolated","diningtable.jpg","picnictable.jpg","survey-text",31,2012889,25,5,"table"
"258","testing","car",3232.86000010557,"familiar","far","sedan.jpg","firetruck.jpg","survey-text",24,213480,26,3,"car"
"259","testing","gems",5550.93999998644,"familiar","isolated","mnms.jpg","gummybears.jpg","survey-text",32,2018956,25,4,"gem"
"260","testing","balance",3862.46000003302,"tangram","isolated","A1.jpg","A2.jpg","survey-text",32,1822578,27,7,"balance"
"261","testing","tshirt",7639.30999999866,"familiar","isolated","poloshirt.jpg","hawaiishirt.jpg","survey-text",33,2027108,25,6,"tshirt"
"262","testing","bear",11770.309999818,"familiar","far","grizzlybear.jpg","lion.jpg","survey-text",25,225777,26,4,"bear"
"263","testing","gems",5963.35000009276,"familiar","far","mnms.jpg","pretzels.jpg","survey-text",26,232251,26,4,"gem"
"264","testing","animal",6672.69999999553,"familiar","isolated","grizzlybear.jpg","polarbear.jpg","survey-text",34,2034296,25,6,"animal"
"265","testing","fish",4409.97999999672,"familiar","far","goldfish.jpg","iguana.jpg","survey-text",27,237175,26,4,"fish"
"266","testing","bird",3973.58500002883,"familiar","isolated","sparrow.jpg","eagle.jpg","survey-text",35,2038776,25,4,"bird"
"267","testing","offering",15542.6699999953,"tangram","isolated","I1.jpg","J1.jpg","survey-text",33,1838635,27,8,"offer"
"268","testing","fish",3872.01999989338,"familiar","isolated","goldfish.jpg","swordfish.jpg","survey-text",36,2043160,25,4,"fish"
"269","testing","car",3463.69000012055,"familiar","close","sedan.jpg","sportscar.jpg","survey-text",29,243137,26,3,"car"
"270","testing","depressed",3155.67000000738,"tangram","isolated","B1.jpg","P1.jpg","survey-text",34,1842305,27,9,"depress"
"271","testing","dog",3773.6899999436,"familiar","close","germanshepherd.jpg","pug.jpg","survey-text",30,247434,26,3,"dog"
"272","testing","animal",6717.15499996208,"familiar","close","grizzlybear.jpg","polarbear.jpg","survey-text",38,2052963,25,6,"animal"
"273","testing","table",4380.0999999512,"familiar","close","diningtable.jpg","picnictable.jpg","survey-text",39,2057852,25,5,"table"
"274","testing","dog",4749.45499980822,"familiar","close","germanshepherd.jpg","pug.jpg","survey-text",40,2063112,25,3,"dog"
"275","testing","bear",13881.0099998955,"familiar","close","grizzlybear.jpg","polarbear.jpg","survey-text",31,261943,26,4,"bear"
"276","testing","fish",4161.64499986917,"familiar","close","goldfish.jpg","swordfish.jpg","survey-text",41,2067796,25,4,"fish"
"277","testing","fish",4638.98000004701,"familiar","close","goldfish.jpg","swordfish.jpg","survey-text",32,267101,26,4,"fish"
"278","testing","gems",4364.31999993511,"familiar","close","mnms.jpg","gummybears.jpg","survey-text",33,271983,26,4,"gem"
"279","testing","gems",5309.81000000611,"familiar","close","mnms.jpg","gummybears.jpg","survey-text",42,2073614,25,4,"gem"
"280","testing","bird",3870.25499995798,"familiar","close","sparrow.jpg","eagle.jpg","survey-text",43,2078002,25,4,"bird"
"281","testing","table",8424.02499984019,"familiar","close","diningtable.jpg","picnictable.jpg","survey-text",34,280918,26,5,"table"
"282","testing","bird",4374.26499999128,"familiar","close","sparrow.jpg","eagle.jpg","survey-text",35,285812,26,4,"bird"
"283","testing","tshirt",12662.8000000492,"familiar","close","poloshirt.jpg","hawaiishirt.jpg","survey-text",44,2091173,25,6,"tshirt"
"284","testing","blueshirt",5901.13499993458,"familiar","close","poloshirt.jpg","hawaiishirt.jpg","survey-text",36,292320,26,9,"blueshirt"
"285","testing","car",3363.63000003621,"familiar","close","sedan.jpg","sportscar.jpg","survey-text",45,2095060,25,3,"car"
"286","testing","enjoy",8107.27999988012,"tangram","isolated","E1.jpg","F1.jpg","survey-text",47,2105560,25,5,"enjoy"
"287","testing","sad",4265.34000015818,"tangram","isolated","G1.jpg","M1.jpg","survey-text",48,2110338,25,3,"sad"
"288","testing","table",15100.5500000902,"familiar","isolated","diningtable.jpg","picnictable.jpg","survey-text",38,309724,26,5,"table"
"289","testing","happy",5144.55499988981,"tangram","isolated","F1.jpg","W1.jpg","survey-text",49,2115989,25,5,"happy"
"290","testing","sad",2927.76000010781,"tangram","isolated","B1.jpg","P1.jpg","survey-text",50,2119428,25,3,"sad"
"291","testing","walk",4897.47000019997,"tangram","isolated","A1.jpg","A2.jpg","survey-text",51,2124833,25,4,"walk"
"292","testing","fish",14461.620000191,"familiar","isolated","goldfish.jpg","swordfish.jpg","survey-text",39,324695,26,4,"fish"
"293","testing","car",5869.42499992438,"familiar","isolated","sedan.jpg","sportscar.jpg","survey-text",40,331076,26,3,"car"
"294","testing","dog",4677.13500000536,"familiar","isolated","germanshepherd.jpg","pug.jpg","survey-text",41,336951,26,3,"dog"
"295","testing","takecare",13025.0599998981,"tangram","isolated","H1.jpg","Y1.jpg","survey-text",52,2138383,25,8,"takecare"
"296","testing","gems",3422.46500006877,"familiar","isolated","mnms.jpg","gummybears.jpg","survey-text",42,340886,26,4,"gem"
"297","testing","please",7511.2149999477,"tangram","isolated","K1.jpg","T1.jpg","survey-text",53,2146612,25,6,"please"
"298","testing","bear",5365.41499989107,"familiar","isolated","grizzlybear.jpg","polarbear.jpg","survey-text",43,346777,26,4,"bear"
"299","testing","please",3880.85000007413,"tangram","isolated","I1.jpg","J1.jpg","survey-text",54,2151132,25,6,"please"
"300","testing","bird",7217.38999988884,"familiar","isolated","sparrow.jpg","eagle.jpg","survey-text",44,354506,26,4,"bird"
"301","testing","shirt",3470.22500005551,"familiar","isolated","poloshirt.jpg","hawaiishirt.jpg","survey-text",45,358486,26,5,"shirt"
"302","testing","praying",2716.32000000682,"tangram","isolated","G1.jpg","M1.jpg","survey-text",36,1959098,27,7,"pray"
"303","testing","sparrow",2033.68500003126,"familiar","isolated","sparrow.jpg","eagle.jpg","survey-text",38,1963316,27,7,"sparrow"
"304","testing","woman",5985.25499994867,"tangram","far","I1.jpg","R1.jpg","survey-text",47,367048,26,5,"woman"
"305","testing","car",2535.33499996411,"familiar","isolated","sedan.jpg","sportscar.jpg","survey-text",39,1966358,27,3,"car"
"306","testing","bear",1570.9799999604,"familiar","isolated","grizzlybear.jpg","polarbear.jpg","survey-text",40,1968436,27,4,"bear"
"307","testing","dog",4020.30999981798,"tangram","far","K1.jpg","V1.jpg","survey-text",48,371585,26,3,"dog"
"308","testing","shirt",2037.59000002174,"familiar","isolated","poloshirt.jpg","hawaiishirt.jpg","survey-text",41,1970982,27,5,"shirt"
"309","testing","walk",3428.27999987639,"tangram","far","B1.jpg","O1.jpg","survey-text",49,375534,26,4,"walk"
"310","testing","sit",3462.19500014558,"tangram","far","G1.jpg","N1.jpg","survey-text",50,379511,26,3,"sit"
"311","testing","stand",4794.02999999002,"tangram","far","H1.jpg","A2.jpg","survey-text",51,385012,26,5,"stand"
"312","testing","run",3767.62000005692,"tangram","far","A1.jpg","D1.jpg","survey-text",52,389308,26,3,"run"
"313","testing","fly",4354.93499995209,"tangram","far","E1.jpg","C2.jpg","survey-text",53,394214,26,3,"fly"
"314","testing","table",2017.44999998482,"familiar","isolated","diningtable.jpg","picnictable.jpg","survey-text",43,1994421,27,5,"table"
"315","testing","run",5034.11999996752,"tangram","far","F1.jpg","C1.jpg","survey-text",54,399763,26,3,"run"
"316","testing","candy",2229.55500002718,"familiar","isolated","mnms.jpg","gummybears.jpg","survey-text",44,1997168,27,5,"candy"
"317","testing","goldfish",2020.35500004422,"familiar","isolated","goldfish.jpg","swordfish.jpg","survey-text",45,1999703,27,8,"goldfish"
"318","testing","table",2031.0199999949,"familiar","far","diningtable.jpg","wardrobe.jpg","survey-text",47,2003562,27,5,"table"
"319","testing","bear",1410.86000000359,"familiar","far","grizzlybear.jpg","lion.jpg","survey-text",48,2005483,27,4,"bear"
"320","testing","shirt",1819.7199999704,"familiar","far","poloshirt.jpg","dress.jpg","survey-text",49,2007807,27,5,"shirt"
"321","testing","car",1392.43999996688,"familiar","far","sedan.jpg","firetruck.jpg","survey-text",50,2009711,27,3,"car"
"322","testing","candy",1613.1400000304,"familiar","far","mnms.jpg","pretzels.jpg","survey-text",51,2011831,27,5,"candy"
"323","testing","dog",2529.15499999654,"familiar","far","germanshepherd.jpg","cow.jpg","survey-text",52,2014876,27,3,"dog"
"324","testing","fish",1448.23500001803,"familiar","far","goldfish.jpg","iguana.jpg","survey-text",53,2016829,27,4,"fish"
"325","testing","bird",1939.25499997567,"familiar","far","sparrow.jpg","squirrel.jpg","survey-text",54,2019283,27,4,"bird"
"326","testing","bear",10493.0000000168,"familiar","isolated","grizzlybear.jpg","polarbear.jpg","survey-text",2,69498,7,4,"bear"
"327","testing","fish",8543.00000000512,"familiar","isolated","goldfish.jpg","swordfish.jpg","survey-text",3,78557,7,4,"fish"
"328","testing","sparrow",10187.9999999655,"familiar","isolated","sparrow.jpg","eagle.jpg","survey-text",4,89254,7,7,"sparrow"
"329","testing","table",11529.0000000386,"familiar","isolated","diningtable.jpg","picnictable.jpg","survey-text",5,101294,7,5,"table"
"330","testing","car",6056.00000004051,"familiar","isolated","sedan.jpg","sportscar.jpg","survey-text",6,107866,7,3,"car"
"331","testing","shirt",6128.00000002608,"familiar","isolated","poloshirt.jpg","hawaiishirt.jpg","survey-text",7,114506,7,5,"shirt"
"332","testing","dog",5983.99999999674,"familiar","isolated","germanshepherd.jpg","pug.jpg","survey-text",8,121002,7,3,"dog"
"333","testing","shapes",13214.9999999674,"tangram","close","G1.jpg","M1.jpg","survey-text",11,169387,7,6,"shape"
"334","testing","dog",17706.9999999949,"tangram","close","K1.jpg","T1.jpg","survey-text",12,187609,7,3,"dog"
"335","testing","human",19027.0000000019,"tangram","close","A1.jpg","A2.jpg","survey-text",13,207150,7,5,"human"
"336","testing","house",10273.9999999758,"tangram","close","H1.jpg","Y1.jpg","survey-text",15,248324,7,5,"house"
"337","testing","shirt",4694.53999999996,"familiar","isolated","poloshirt.jpg","hawaiishirt.jpg","survey-text",2,21713,16,5,"shirt"
"338","testing","bear",3494.48500000017,"familiar","isolated","grizzlybear.jpg","polarbear.jpg","survey-text",3,25713,16,4,"bear"
"339","testing","human",9458.00000004238,"tangram","close","B1.jpg","P1.jpg","survey-text",16,258312,7,5,"human"
"340","testing","dog",3256.16499999978,"familiar","isolated","germanshepherd.jpg","pug.jpg","survey-text",4,29473,16,3,"dog"
"341","testing","car",2542.65499999974,"familiar","isolated","sedan.jpg","sportscar.jpg","survey-text",5,32521,16,3,"car"
"342","testing","table",3385.00000000022,"familiar","isolated","diningtable.jpg","picnictable.jpg","survey-text",6,36417,16,5,"table"
"343","testing","bat",9089.9999999674,"tangram","close","E1.jpg","F1.jpg","survey-text",17,267917,7,3,"bat"
"344","testing","fish",3207.18499999976,"familiar","isolated","goldfish.jpg","swordfish.jpg","survey-text",7,40128,16,4,"fish"
"345","testing","candy",3794.76499999964,"familiar","isolated","mnms.jpg","gummybears.jpg","survey-text",8,44432,16,5,"candy"
"346","testing","bird",5784.07000000016,"familiar","isolated","sparrow.jpg","eagle.jpg","survey-text",9,50721,16,4,"bird"
"347","testing","shark",17596.9999999506,"tangram","close","F1.jpg","W1.jpg","survey-text",18,286027,7,5,"shark"
"348","testing","bird",8950.08499999995,"familiar","far","sparrow.jpg","squirrel.jpg","survey-text",11,64025,16,4,"bird"
"349","testing","dog",3678.94500000011,"familiar","far","germanshepherd.jpg","cow.jpg","survey-text",12,68209,16,3,"dog"
"350","testing","shirt",2880.20000000006,"familiar","far","poloshirt.jpg","dress.jpg","survey-text",13,71594,16,5,"shirt"
"351","testing","dog",9364.0000000014,"familiar","far","germanshepherd.jpg","cow.jpg","survey-text",20,303530,7,3,"dog"
"352","testing","fish",5149.59,"familiar","far","goldfish.jpg","iguana.jpg","survey-text",14,77249,16,4,"fish"
"353","testing","sparrow",7455.0000000163,"familiar","far","sparrow.jpg","squirrel.jpg","survey-text",21,311497,7,7,"sparrow"
"354","testing","candy",4159.37499999972,"familiar","far","mnms.jpg","pretzels.jpg","survey-text",15,81912,16,5,"candy"
"355","testing","bear",4208.63000000009,"familiar","far","grizzlybear.jpg","lion.jpg","survey-text",16,86626,16,4,"bear"
"356","testing","fish",6263.99999996647,"familiar","far","goldfish.jpg","iguana.jpg","survey-text",22,318271,7,4,"fish"
"357","testing","car",7621.46500000017,"familiar","far","sedan.jpg","firetruck.jpg","survey-text",17,94753,16,3,"car"
"358","testing","table",7676.99999996694,"familiar","far","diningtable.jpg","wardrobe.jpg","survey-text",23,326477,7,5,"table"
"359","testing","table",4531.98500000007,"familiar","far","diningtable.jpg","wardrobe.jpg","survey-text",18,99793,16,5,"table"
"360","testing","bear",7673.00000000978,"familiar","far","grizzlybear.jpg","lion.jpg","survey-text",24,334669,7,4,"bear"
"361","testing","bend",8799.53999999998,"tangram","far","K1.jpg","V1.jpg","survey-text",21,133609,16,4,"bend"
"362","testing","walk",5375.07999999981,"tangram","far","B1.jpg","O1.jpg","survey-text",22,139489,16,4,"walk"
"363","testing","celebrate",8508.94500000004,"tangram","far","E1.jpg","C2.jpg","survey-text",23,148505,16,9,"celebrate"
"364","testing","frolick",15438.4050000003,"tangram","far","A1.jpg","D1.jpg","survey-text",24,164448,16,7,"frolick"
"365","testing","splits",12494.2099999998,"tangram","far","F1.jpg","C1.jpg","survey-text",25,177449,16,6,"split"
"366","testing","pray",6335.34000000011,"tangram","far","H1.jpg","A2.jpg","survey-text",26,184289,16,4,"pray"
"367","testing","chair",10445.0199999847,"familiar","close","diningtable.jpg","picnictable.jpg","survey-text",2,34483,15,5,"chair"
"368","testing","serve",4990.40500000003,"tangram","far","I1.jpg","R1.jpg","survey-text",27,189784,16,5,"serve"
"369","testing","bird",5985.96999997972,"familiar","close","sparrow.jpg","eagle.jpg","survey-text",3,40983,15,4,"bird"
"370","testing","celebrate",7681.61499999996,"tangram","close","E1.jpg","F1.jpg","survey-text",29,199433,16,9,"celebrate"
"371","testing","bend",4920.54499999995,"tangram","close","K1.jpg","T1.jpg","survey-text",30,204864,16,4,"bend"
"372","testing","shirt",8913.99999998976,"familiar","far","poloshirt.jpg","dress.jpg","survey-text",26,439033,7,5,"shirt"
"373","testing","dog",14269.7749999934,"familiar","close","grizzlybear.jpg","polarbear.jpg","survey-text",4,55767,15,3,"dog"
"374","testing","walk",7416.14000000028,"tangram","close","B1.jpg","P1.jpg","survey-text",31,212785,16,4,"walk"
"375","testing","car",6027.99999999115,"familiar","far","sedan.jpg","firetruck.jpg","survey-text",27,445572,7,3,"car"
"376","testing","splits",3823.54000000033,"tangram","close","F1.jpg","W1.jpg","survey-text",32,217114,16,6,"split"
"377","testing","dog",6067.68999999622,"familiar","close","germanshepherd.jpg","pug.jpg","survey-text",5,62345,15,3,"dog"
"378","testing","sit",3134.04999999967,"tangram","close","G1.jpg","M1.jpg","survey-text",33,220753,16,3,"sit"
"379","testing","shirt",5366.41499999678,"familiar","close","poloshirt.jpg","hawaiishirt.jpg","survey-text",6,68223,15,5,"shirt"
"380","testing","frolick",4175.06999999977,"tangram","close","A1.jpg","A2.jpg","survey-text",34,225433,16,7,"frolick"
"381","testing","fish",10332.6050000032,"familiar","close","goldfish.jpg","swordfish.jpg","survey-text",7,79064,15,4,"fish"
"382","testing","human",14010.0000000093,"tangram","isolated","B1.jpg","P1.jpg","survey-text",29,465082,7,5,"human"
"383","testing","pray",10556.2750000004,"tangram","close","H1.jpg","Y1.jpg","survey-text",35,236496,16,4,"pray"
"384","testing","car",4869.26499998663,"familiar","close","sedan.jpg","sportscar.jpg","survey-text",8,84443,15,3,"car"
"385","testing","serve",2912.66499999983,"tangram","close","I1.jpg","J1.jpg","survey-text",36,239914,16,5,"serve"
"386","testing","dog",8505.00000000466,"tangram","isolated","K1.jpg","T1.jpg","survey-text",30,474099,7,3,"dog"
"387","testing","candy",11030.0199999474,"familiar","close","mnms.jpg","gummybears.jpg","survey-text",9,95986,15,5,"candy"
"388","testing","shark",6504.00000001537,"tangram","isolated","F1.jpg","W1.jpg","survey-text",31,481112,7,5,"shark"
"389","testing","m&m",9815.70499999996,"familiar","close","mnms.jpg","gummybears.jpg","survey-text",38,251625,16,3,"m&m"
"390","testing","bird",7357.75500000454,"familiar","isolated","sparrow.jpg","eagle.jpg","survey-text",11,106184,15,4,"bird"
"391","testing","wren",9294.81000000035,"familiar","close","sparrow.jpg","eagle.jpg","survey-text",39,261425,16,4,"wren"
"392","testing","fish",9597.00000000885,"tangram","isolated","I1.jpg","J1.jpg","survey-text",32,491543,7,4,"fish"
"393","testing","shepherd",4101.48500000016,"familiar","close","germanshepherd.jpg","pug.jpg","survey-text",40,266033,16,8,"shepherd"
"394","testing","shirt",6708.51500000572,"familiar","isolated","poloshirt.jpg","hawaiishirt.jpg","survey-text",12,113405,15,5,"shirt"
"395","testing","human",8386.99999998789,"tangram","isolated","A1.jpg","A2.jpg","survey-text",33,500446,7,5,"human"
"396","testing","goldfish",4932.27999999997,"familiar","close","goldfish.jpg","swordfish.jpg","survey-text",41,271473,16,8,"goldfish"
"397","testing","dog",6808.39999997988,"familiar","isolated","germanshepherd.jpg","pug.jpg","survey-text",13,120726,15,3,"dog"
"398","testing","grizzly",4520.16499999992,"familiar","close","grizzlybear.jpg","polarbear.jpg","survey-text",42,276497,16,7,"grizzly"
"399","testing","house",8288.00000000047,"tangram","isolated","H1.jpg","Y1.jpg","survey-text",34,509246,7,5,"house"
"400","testing","table",10351.0000000001,"familiar","close","diningtable.jpg","picnictable.jpg","survey-text",43,287353,16,5,"table"
"401","testing","fish",13680.8500000043,"familiar","isolated","goldfish.jpg","swordfish.jpg","survey-text",14,134912,15,4,"fish"
"402","testing","deer",9190.57999999495,"familiar","isolated","grizzlybear.jpg","polarbear.jpg","survey-text",15,144612,15,4,"deer"
"403","testing","chair",6142.60999998078,"familiar","isolated","diningtable.jpg","picnictable.jpg","survey-text",16,151263,15,5,"chair"
"404","testing","car",5006.61499996204,"familiar","isolated","sedan.jpg","sportscar.jpg","survey-text",17,156777,15,3,"car"
"405","testing","candy",5190.07500004955,"familiar","isolated","mnms.jpg","gummybears.jpg","survey-text",18,162485,15,5,"candy"
"406","testing","bat",5965.00000002561,"tangram","isolated","E1.jpg","F1.jpg","survey-text",36,548933,7,3,"bat"
"407","testing","chair",9383.79999995232,"familiar","far","diningtable.jpg","wardrobe.jpg","survey-text",20,175984,15,5,"chair"
"408","testing","sedan",6488.47999999998,"familiar","close","sedan.jpg","sportscar.jpg","survey-text",45,338809,16,5,"sedan"
"409","testing","animal",13220.5499999691,"familiar","far","sparrow.jpg","squirrel.jpg","survey-text",21,189711,15,6,"animal"
"410","testing","splits",5980.46999999997,"tangram","isolated","F1.jpg","W1.jpg","survey-text",47,346648,16,6,"split"
"411","testing","dress",5122.84500000533,"familiar","far","poloshirt.jpg","dress.jpg","survey-text",22,195343,15,5,"dress"
"412","testing","celebrate",3160.37499999994,"tangram","isolated","E1.jpg","F1.jpg","survey-text",48,350312,16,9,"celebrate"
"413","testing","bend",4031.00499999983,"tangram","isolated","K1.jpg","T1.jpg","survey-text",49,354848,16,4,"bend"
"414","testing","pray",2447.43000000017,"tangram","isolated","H1.jpg","Y1.jpg","survey-text",50,357799,16,4,"pray"
"415","testing","sit",3184.58000000013,"tangram","isolated","G1.jpg","M1.jpg","survey-text",51,361488,16,3,"sit"
"416","testing","snacks",11260.4900000151,"familiar","far","mnms.jpg","pretzels.jpg","survey-text",23,207122,15,6,"snack"
"417","testing","frolick",2543.23000000021,"tangram","isolated","A1.jpg","A2.jpg","survey-text",52,364535,16,7,"frolick"
"418","testing","serve",2776.29499999969,"tangram","isolated","I1.jpg","J1.jpg","survey-text",53,367816,16,5,"serve"
"419","testing","goldfish",14616.9999999693,"familiar","close","goldfish.jpg","swordfish.jpg","survey-text",39,600128,7,8,"goldfish"
"420","testing","walk",2377.12000000011,"tangram","isolated","B1.jpg","P1.jpg","survey-text",54,370698,16,4,"walk"
"421","testing","animal",15808.2300000242,"familiar","far","goldfish.jpg","iguana.jpg","survey-text",24,223442,15,6,"animal"
"422","testing","car",11744.9999999953,"familiar","close","sedan.jpg","sportscar.jpg","survey-text",40,612386,7,3,"car"
"423","testing","animal",19030.9700000216,"familiar","far","germanshepherd.jpg","cow.jpg","survey-text",25,242983,15,6,"animal"
"424","testing","dog",15285.9999999637,"familiar","close","germanshepherd.jpg","pug.jpg","survey-text",41,628184,7,3,"dog"
"425","testing","vechicle",6252.21499998588,"familiar","far","sedan.jpg","firetruck.jpg","survey-text",26,249742,15,8,"vechicle"
"426","testing","b",9120.00000011176,"familiar","isolated","grizzlybear.jpg","polarbear.jpg","survey-text",2,17138,13,1,"b"
"427","testing","table",8650.00000002328,"familiar","close","diningtable.jpg","picnictable.jpg","survey-text",42,637348,7,5,"table"
"428","testing","t",6030.99999995902,"familiar","isolated","poloshirt.jpg","hawaiishirt.jpg","survey-text",3,23672,13,1,"t"
"429","testing","animal",7619.37500000931,"familiar","far","grizzlybear.jpg","lion.jpg","survey-text",27,257883,15,6,"animal"
"430","testing","b",7006.99999998324,"familiar","isolated","diningtable.jpg","picnictable.jpg","survey-text",4,31212,13,1,"b"
"431","testing","c",3800.00000004657,"familiar","isolated","sedan.jpg","sportscar.jpg","survey-text",5,35520,13,1,"c"
"432","testing","f",3655.00000002794,"familiar","isolated","goldfish.jpg","swordfish.jpg","survey-text",6,39693,13,1,"f"
"433","testing","logo",14534.2100000125,"tangram","isolated","E1.jpg","F1.jpg","survey-text",29,275785,15,4,"logo"
"434","testing","logo",6808.83499997435,"tangram","isolated","F1.jpg","W1.jpg","survey-text",30,283103,15,4,"logo"
"435","testing","shirt",8010.9999999986,"familiar","close","poloshirt.jpg","hawaiishirt.jpg","survey-text",44,670297,7,5,"shirt"
"436","testing","honda",10846.3650000049,"familiar","close","sedan.jpg","sportscar.jpg","survey-text",2,30659,9,5,"honda"
"437","testing","chocolates",8545.00000004191,"familiar","close","mnms.jpg","gummybears.jpg","survey-text",45,679353,7,10,"chocolate"
"438","testing","circular",8352.17999998713,"familiar","close","mnms.jpg","gummybears.jpg","survey-text",3,39515,9,8,"circular"
"439","testing","graduate",13982.3199999519,"tangram","isolated","H1.jpg","Y1.jpg","survey-text",31,297595,15,8,"graduate"
"440","testing","brown",4592.14500000235,"familiar","close","grizzlybear.jpg","polarbear.jpg","survey-text",4,44610,9,5,"brown"
"441","testing","man",8159.90500000771,"tangram","isolated","I1.jpg","J1.jpg","survey-text",32,306265,15,3,"man"
"442","testing","long",15184.9700000021,"familiar","close","diningtable.jpg","picnictable.jpg","survey-text",5,60298,9,4,"long"
"443","testing","dance",12352.5200000149,"tangram","isolated","A1.jpg","A2.jpg","survey-text",33,319127,15,5,"dance"
"444","testing","orange",6329.90499999141,"familiar","close","goldfish.jpg","swordfish.jpg","survey-text",6,67131,9,6,"orange"
"445","testing","dog",6558.76500002341,"tangram","isolated","K1.jpg","T1.jpg","survey-text",34,326194,15,3,"dog"
"446","testing","human",11456.9999999949,"tangram","far","F1.jpg","C1.jpg","survey-text",48,715194,7,5,"human"
"447","testing","bird",11554.0000000037,"familiar","isolated","sparrow.jpg","eagle.jpg","survey-text",8,101165,13,4,"bird"
"448","testing","women",8300.85999995936,"tangram","isolated","G1.jpg","M1.jpg","survey-text",35,335013,15,5,"woman"
"449","testing","monochrome",10456.8399999989,"familiar","close","poloshirt.jpg","hawaiishirt.jpg","survey-text",7,78091,9,10,"monochrome"
"450","testing","dog",3686.00000021979,"familiar","isolated","germanshepherd.jpg","pug.jpg","survey-text",9,105360,13,3,"dog"
"451","testing","shepherd",6552.1150000277,"familiar","close","germanshepherd.jpg","pug.jpg","survey-text",8,85147,9,8,"shepherd"
"452","testing","step",10177.5749999797,"tangram","isolated","B1.jpg","P1.jpg","survey-text",36,345703,15,4,"step"
"453","testing","human",15645.0000000186,"tangram","far","I1.jpg","R1.jpg","survey-text",49,731355,7,5,"human"
"454","testing","small",8000.62000000617,"familiar","close","sparrow.jpg","eagle.jpg","survey-text",9,93650,9,5,"small"
"455","testing","run",4765.05999994697,"tangram","far","I1.jpg","R1.jpg","survey-text",38,353357,15,3,"run"
"456","testing","human",10160.9999999637,"tangram","far","K1.jpg","V1.jpg","survey-text",50,742032,7,5,"human"
"457","testing","step",5693.5999999987,"tangram","far","B1.jpg","O1.jpg","survey-text",39,359564,15,4,"step"
"458","testing","standing",6201.76500000525,"tangram","far","G1.jpg","N1.jpg","survey-text",11,102891,9,8,"stand"
"459","testing","begging",4384.22000000719,"tangram","far","H1.jpg","A2.jpg","survey-text",12,107779,9,7,"beg"
"460","testing","human",6913.00000000047,"tangram","far","H1.jpg","A2.jpg","survey-text",51,749455,7,5,"human"
"461","testing","dance",5164.37999997288,"tangram","far","E1.jpg","C2.jpg","survey-text",40,365240,15,5,"dance"
"462","testing","begger",6358.99999993853,"tangram","close","I1.jpg","J1.jpg","survey-text",12,136194,13,6,"begger"
"463","testing","human",5456.99999999488,"tangram","far","B1.jpg","O1.jpg","survey-text",52,755435,7,5,"human"
"464","testing","run",5057.1850000415,"tangram","far","K1.jpg","V1.jpg","survey-text",41,370807,15,3,"run"
"465","testing","human",8809.00000000838,"tangram","far","E1.jpg","C2.jpg","survey-text",53,764754,7,5,"human"
"466","testing","leaning",15020.8050000365,"tangram","far","K1.jpg","V1.jpg","survey-text",13,123307,9,7,"lean"
"467","testing","dance",10603.5300000221,"tangram","far","H1.jpg","A2.jpg","survey-text",42,381924,15,5,"dance"
"468","testing","sitting",11722.9999999981,"tangram","close","G1.jpg","M1.jpg","survey-text",13,148427,13,7,"sit"
"469","testing","sad",5175.61500001466,"tangram","far","B1.jpg","O1.jpg","survey-text",14,128986,9,3,"sad"
"470","testing","dance",5296.2749999715,"tangram","far","G1.jpg","N1.jpg","survey-text",43,387731,15,5,"dance"
"471","testing","human",7365.99999997998,"tangram","far","G1.jpg","N1.jpg","survey-text",54,772634,7,5,"human"
"472","testing","running",5081.0749999946,"tangram","far","A1.jpg","D1.jpg","survey-text",15,134570,9,7,"run"
"473","testing","shadow",11452.0000000484,"tangram","close","K1.jpg","T1.jpg","survey-text",14,160388,13,6,"shadow"
"474","testing","pray",6642.7000000258,"tangram","far","F1.jpg","C1.jpg","survey-text",44,394884,15,4,"pray"
"475","testing","sad",4837.99999998882,"tangram","close","B1.jpg","P1.jpg","survey-text",15,165761,13,3,"sad"
"476","testing","asking",7576.92000002135,"tangram","far","I1.jpg","R1.jpg","survey-text",16,142651,9,6,"ask"
"477","testing","human",8927.52000002656,"tangram","far","A1.jpg","D1.jpg","survey-text",45,404326,15,5,"human"
"478","testing","flying",6033.9999999851,"tangram","close","E1.jpg","F1.jpg","survey-text",16,172306,13,6,"fly"
"479","testing","excited",6608.21000003489,"tangram","far","F1.jpg","C1.jpg","survey-text",17,149763,9,7,"excite"
"480","testing","jumping",3520.13000001898,"tangram","far","E1.jpg","C2.jpg","survey-text",18,153786,9,7,"jump"
"481","testing","beg",4824.84000001568,"tangram","close","K1.jpg","T1.jpg","survey-text",47,412193,15,3,"beg"
"482","testing","running",5766.99999999255,"tangram","close","A1.jpg","A2.jpg","survey-text",17,178578,13,7,"run"
"483","testing","begging",5209.18499998515,"tangram","isolated","H1.jpg","Y1.jpg","survey-text",20,161330,9,7,"beg"
"484","testing","dance",6182.64999997336,"tangram","close","E1.jpg","F1.jpg","survey-text",48,418884,15,5,"dance"
"485","testing","jumping",2632.44999997551,"tangram","isolated","E1.jpg","F1.jpg","survey-text",21,164466,9,7,"jump"
"486","testing","enloyable",8587.00000005774,"tangram","close","F1.jpg","W1.jpg","survey-text",18,187666,13,9,"enloyable"
"487","testing","dance",4419.7549999808,"tangram","close","F1.jpg","W1.jpg","survey-text",49,423824,15,5,"dance"
"488","testing","excited",5052.79000004521,"tangram","isolated","F1.jpg","W1.jpg","survey-text",22,170026,9,7,"excite"
"489","testing","human",5171.48000001907,"tangram","close","G1.jpg","M1.jpg","survey-text",50,429505,15,5,"human"
"490","testing","run",5913.99999987334,"tangram","far","A1.jpg","D1.jpg","survey-text",20,197411,13,3,"run"
"491","testing","standing",4568.09000001522,"tangram","isolated","G1.jpg","M1.jpg","survey-text",23,175098,9,8,"stand"
"492","testing","asking",2721.63500002353,"tangram","isolated","I1.jpg","J1.jpg","survey-text",24,178322,9,6,"ask"
"493","testing","sad",4131.00000005215,"tangram","far","B1.jpg","O1.jpg","survey-text",21,202053,13,3,"sad"
"494","testing","step",6227.26499999408,"tangram","close","A1.jpg","A2.jpg","survey-text",51,436243,15,4,"step"
"495","testing","leaning",3385.32000000123,"tangram","isolated","K1.jpg","T1.jpg","survey-text",25,182211,9,7,"lean"
"496","testing","pray",6244.03000000166,"tangram","close","I1.jpg","J1.jpg","survey-text",52,443000,15,4,"pray"
"497","testing","running",3503.84499999927,"tangram","isolated","A1.jpg","A2.jpg","survey-text",26,186219,9,7,"run"
"498","testing","sitting",9087.00000005774,"tangram","far","G1.jpg","N1.jpg","survey-text",22,211653,13,7,"sit"
"499","testing","sad",1922.02999995789,"tangram","isolated","B1.jpg","P1.jpg","survey-text",27,188644,9,3,"sad"
"500","testing","begger",4476.9999999553,"tangram","far","I1.jpg","R1.jpg","survey-text",23,216641,13,6,"begger"
"501","testing","pray",7296.00999999093,"tangram","close","H1.jpg","Y1.jpg","survey-text",53,450823,15,4,"pray"
"502","testing","bear",3992.04500002088,"familiar","isolated","grizzlybear.jpg","polarbear.jpg","survey-text",29,194850,9,4,"bear"
"503","testing","standing",6566.99999980628,"tangram","far","K1.jpg","V1.jpg","survey-text",24,223743,13,8,"stand"
"504","testing","goldfish",5801.55500001274,"familiar","isolated","goldfish.jpg","swordfish.jpg","survey-text",30,201154,9,8,"goldfish"
"505","testing","stand",9624.95999998646,"tangram","close","B1.jpg","P1.jpg","survey-text",54,460958,15,5,"stand"
"506","testing","candy",8121.6199999908,"familiar","isolated","mnms.jpg","gummybears.jpg","survey-text",31,209779,9,5,"candy"
"507","testing","honda",3087.45500002988,"familiar","isolated","sedan.jpg","sportscar.jpg","survey-text",32,213371,9,5,"honda"
"508","testing","enjoyable",15709.0000000317,"tangram","far","F1.jpg","C1.jpg","survey-text",25,239978,13,9,"enjoyable"
"509","testing","bird",4089.91499996046,"familiar","isolated","sparrow.jpg","eagle.jpg","survey-text",33,217964,9,4,"bird"
"510","testing","shirt",3251.80500000715,"familiar","isolated","poloshirt.jpg","hawaiishirt.jpg","survey-text",34,221723,9,5,"shirt"
"511","testing","table",2824.97999997577,"familiar","isolated","diningtable.jpg","picnictable.jpg","survey-text",35,225051,9,5,"table"
"512","testing","enjoyable",7897.00000011362,"tangram","far","E1.jpg","C2.jpg","survey-text",26,248395,13,9,"enjoyable"
"513","testing","dog",2920.53499998292,"familiar","isolated","germanshepherd.jpg","pug.jpg","survey-text",36,228475,9,3,"dog"
"514","testing","sitting",6393.99999985471,"tangram","far","H1.jpg","A2.jpg","survey-text",27,255295,13,7,"sit"
"515","testing","leaning",7159.79500004323,"tangram","close","K1.jpg","T1.jpg","survey-text",38,237714,9,7,"lean"
"516","testing","bench",5760.00000000931,"familiar","close","diningtable.jpg","picnictable.jpg","survey-text",29,265650,13,5,"bench"
"517","testing","jumping",4978.2750000013,"tangram","close","E1.jpg","F1.jpg","survey-text",39,243196,9,7,"jump"
"518","testing","shirt",4126.00000016391,"familiar","close","poloshirt.jpg","hawaiishirt.jpg","survey-text",30,270293,13,5,"shirt"
"519","testing","sad",5657.14999998454,"tangram","close","G1.jpg","M1.jpg","survey-text",40,249355,9,3,"sad"
"520","testing","fish",2628.00000002608,"familiar","close","goldfish.jpg","swordfish.jpg","survey-text",31,273435,13,4,"fish"
"521","testing","dog",2689.99999994412,"familiar","close","germanshepherd.jpg","pug.jpg","survey-text",32,276637,13,3,"dog"
"522","testing","bird",3682.99999996088,"familiar","close","sparrow.jpg","eagle.jpg","survey-text",33,280827,13,4,"bird"
"523","testing","bear",2776.00000007078,"familiar","close","grizzlybear.jpg","polarbear.jpg","survey-text",34,284114,13,4,"bear"
"524","testing","excited",16447.6700000232,"tangram","close","F1.jpg","W1.jpg","survey-text",41,266307,9,7,"excite"
"525","testing","chocolate",5751.99999986216,"familiar","close","mnms.jpg","gummybears.jpg","survey-text",35,290379,13,9,"chocolate"
"526","testing","car",2123.99999983609,"familiar","close","sedan.jpg","sportscar.jpg","survey-text",36,293032,13,3,"car"
"527","testing","running",7680.63499999698,"tangram","close","A1.jpg","A2.jpg","survey-text",42,274491,9,7,"run"
"528","testing","dog",2452.99999997951,"familiar","far","germanshepherd.jpg","cow.jpg","survey-text",38,301634,13,3,"dog"
"529","testing","sad",3976.54499998316,"tangram","close","B1.jpg","P1.jpg","survey-text",43,278971,9,3,"sad"
"530","testing","chocolate",3254.00000018999,"familiar","far","mnms.jpg","pretzels.jpg","survey-text",39,305400,13,9,"chocolate"
"531","testing","begging",3664.11499999231,"tangram","close","H1.jpg","Y1.jpg","survey-text",44,283139,9,7,"beg"
"532","testing","shirt",2913.99999987334,"familiar","far","poloshirt.jpg","dress.jpg","survey-text",40,308829,13,5,"shirt"
"533","testing","asking",2312.07499996526,"tangram","close","I1.jpg","J1.jpg","survey-text",45,285954,9,6,"ask"
"534","testing","bird",3330.00000007451,"familiar","far","sparrow.jpg","squirrel.jpg","survey-text",41,312679,13,4,"bird"
"535","testing","blue",4632.15999997919,"familiar","far","sedan.jpg","firetruck.jpg","survey-text",47,292643,9,4,"blue"
"536","testing","bench",2859.99999986961,"familiar","far","diningtable.jpg","wardrobe.jpg","survey-text",42,316048,13,5,"bench"
"537","testing","bear",1989.99999999069,"familiar","far","grizzlybear.jpg","lion.jpg","survey-text",43,318548,13,4,"bear"
"538","testing","fish",2536.72500001267,"familiar","far","goldfish.jpg","iguana.jpg","survey-text",48,295683,9,4,"fish"
"539","testing","fish",2285.99999984726,"familiar","far","goldfish.jpg","iguana.jpg","survey-text",44,321345,13,4,"fish"
"540","testing","candy",3399.81499995338,"familiar","far","mnms.jpg","pretzels.jpg","survey-text",49,299586,9,5,"candy"
"541","testing","car",1927.99999983981,"familiar","far","sedan.jpg","firetruck.jpg","survey-text",45,323779,13,3,"car"
"542","testing","shirt",2160.94999999041,"familiar","far","poloshirt.jpg","dress.jpg","survey-text",50,302251,9,5,"shirt"
"543","testing","bear",1913.59999997076,"familiar","far","grizzlybear.jpg","lion.jpg","survey-text",51,304674,9,4,"bear"
"544","testing","bird",1968.33000000333,"familiar","far","sparrow.jpg","squirrel.jpg","survey-text",52,307146,9,4,"bird"
"545","testing","table",1760.21500001661,"familiar","far","diningtable.jpg","wardrobe.jpg","survey-text",53,309410,9,5,"table"
"546","testing","dog",1449.5449999813,"familiar","far","germanshepherd.jpg","cow.jpg","survey-text",54,311363,9,3,"dog"
"547","testing","begging",8293.00000006333,"tangram","isolated","K1.jpg","T1.jpg","survey-text",47,334979,13,7,"beg"
"548","testing","sitting",3145.00000001863,"tangram","isolated","G1.jpg","M1.jpg","survey-text",48,338637,13,7,"sit"
"549","testing","enjoyable",7101.9999999553,"tangram","isolated","F1.jpg","W1.jpg","survey-text",49,346252,13,9,"enjoyable"
"550","testing","begging",3719.99999997206,"tangram","isolated","I1.jpg","J1.jpg","survey-text",50,350476,13,7,"beg"
"551","testing","walking",6614.99999999069,"tangram","isolated","A1.jpg","A2.jpg","survey-text",51,357637,13,7,"walk"
"552","testing","begging",7554.00000000373,"tangram","isolated","H1.jpg","Y1.jpg","survey-text",52,365698,13,7,"beg"
"553","testing","enjoyable",5503.00000002608,"tangram","isolated","E1.jpg","F1.jpg","survey-text",53,371716,13,9,"enjoyable"
"554","testing","sa",2064.00000001304,"tangram","isolated","B1.jpg","P1.jpg","survey-text",54,374294,13,2,"sa"
"555","testing","thin",19450.324999998,"tangram","close","H1.jpg","Y1.jpg","survey-text",2,52410,23,4,"thin"
"556","testing","big",15673.8650000043,"tangram","close","F1.jpg","W1.jpg","survey-text",4,100312,23,3,"big"
"557","testing","jump",5631.66499999352,"tangram","close","E1.jpg","F1.jpg","survey-text",5,106448,23,4,"jump"
"558","testing","sad",7552.87499999395,"tangram","close","B1.jpg","P1.jpg","survey-text",6,114505,23,3,"sad"
"559","testing","bent",7769.79500000016,"tangram","close","I1.jpg","J1.jpg","survey-text",8,143620,23,4,"bend"
"560","testing","kneel",5434.04500000179,"tangram","close","G1.jpg","M1.jpg","survey-text",9,149557,23,5,"kneel"
"561","testing","dog",6521.21999999508,"familiar","far","germanshepherd.jpg","cow.jpg","survey-text",11,159366,23,3,"dog"
"562","testing","chocolate",6674.53000000387,"familiar","far","mnms.jpg","pretzels.jpg","survey-text",12,166543,23,9,"chocolate"
"563","testing","fish",2631.22999999905,"familiar","far","goldfish.jpg","iguana.jpg","survey-text",13,169679,23,4,"fish"
"564","testing","table",2441.33000000147,"familiar","far","diningtable.jpg","wardrobe.jpg","survey-text",14,172623,23,5,"table"
"565","testing","car",1945.54499999504,"familiar","far","sedan.jpg","firetruck.jpg","survey-text",15,175072,23,3,"car"
"566","testing","shirt",4281.78499999922,"familiar","far","poloshirt.jpg","dress.jpg","survey-text",16,179857,23,5,"shirt"
"567","testing","bird",2215.2999999962,"familiar","far","sparrow.jpg","squirrel.jpg","survey-text",17,182577,23,4,"bird"
"568","testing","bear",2616.50499999814,"familiar","far","grizzlybear.jpg","lion.jpg","survey-text",18,185697,23,4,"bear"
"569","testing","bear",2754.14499999897,"familiar","isolated","grizzlybear.jpg","polarbear.jpg","survey-text",20,194394,23,4,"bear"
"570","testing","fish",1904.51500000199,"familiar","isolated","goldfish.jpg","swordfish.jpg","survey-text",21,196803,23,4,"fish"
"571","testing","dog",2977.52500000934,"familiar","isolated","germanshepherd.jpg","pug.jpg","survey-text",22,200283,23,3,"dog"
"572","testing","bird",2299.49999999371,"familiar","isolated","sparrow.jpg","eagle.jpg","survey-text",23,203092,23,4,"bird"
"573","testing","car",2529.65500000573,"familiar","isolated","sedan.jpg","sportscar.jpg","survey-text",24,206124,23,3,"car"
"574","testing","shirt",1384.195000006,"familiar","isolated","poloshirt.jpg","hawaiishirt.jpg","survey-text",25,208012,23,5,"shirt"
"575","testing","candy",4504.90499999432,"familiar","isolated","mnms.jpg","gummybears.jpg","survey-text",26,213021,23,5,"candy"
"576","testing","table",1585.0150000042,"familiar","isolated","diningtable.jpg","picnictable.jpg","survey-text",27,215109,23,5,"table"
"577","testing","small",5983.76499999722,"familiar","close","sparrow.jpg","eagle.jpg","survey-text",29,223982,23,5,"small"
"578","testing","color",17830.2050000002,"familiar","far","poloshirt.jpg","dress.jpg","survey-text",2,39323,21,5,"color"
"579","testing","chocolate",2817.11499999801,"familiar","close","mnms.jpg","gummybears.jpg","survey-text",30,227302,23,9,"chocolate"
"580","testing","blue",2281.90499999619,"familiar","close","sedan.jpg","sportscar.jpg","survey-text",31,230087,23,4,"blue"
"581","testing","bird",12298.4049999995,"familiar","far","sparrow.jpg","squirrel.jpg","survey-text",3,52131,21,4,"bird"
"582","testing","big",2760.41000000259,"familiar","close","germanshepherd.jpg","pug.jpg","survey-text",33,254354,23,3,"big"
"583","testing","table",15254.6849999999,"familiar","far","diningtable.jpg","wardrobe.jpg","survey-text",4,67904,21,5,"table"
"584","testing","brown",2502.41499999538,"familiar","close","grizzlybear.jpg","polarbear.jpg","survey-text",34,257362,23,5,"brown"
"585","testing","gold",4376.660000009,"familiar","close","goldfish.jpg","swordfish.jpg","survey-text",35,262243,23,4,"gold"
"586","testing","gems",8543.38499999994,"familiar","far","mnms.jpg","pretzels.jpg","survey-text",5,76970,21,4,"gem"
"587","testing","plain",2976.98000000673,"familiar","close","poloshirt.jpg","hawaiishirt.jpg","survey-text",36,265723,23,5,"plain"
"588","testing","bear",9147.93499999995,"familiar","far","grizzlybear.jpg","lion.jpg","survey-text",6,86630,21,4,"bear"
"589","testing","walk",7874.33999999485,"tangram","isolated","B1.jpg","P1.jpg","survey-text",38,276301,23,4,"walk"
"590","testing","bent",9881.9749999966,"tangram","isolated","K1.jpg","T1.jpg","survey-text",39,286686,23,4,"bend"
"591","testing","fish",14872.6849999994,"familiar","far","goldfish.jpg","iguana.jpg","survey-text",7,102039,21,4,"fish"
"592","testing","run",2873.86000000697,"tangram","isolated","A1.jpg","A2.jpg","survey-text",40,290062,23,3,"run"
"593","testing","jump",3033.89500000048,"tangram","isolated","E1.jpg","F1.jpg","survey-text",41,293599,23,4,"jump"
"594","testing","dog",8680.84499999986,"familiar","far","germanshepherd.jpg","cow.jpg","survey-text",8,111240,21,3,"dog"
"595","testing","bow",5497.10000000778,"tangram","isolated","I1.jpg","J1.jpg","survey-text",42,299599,23,3,"bow"
"596","testing","kneel",2168.56000000553,"tangram","isolated","G1.jpg","M1.jpg","survey-text",43,302272,23,5,"kneel"
"597","testing","car",5352.355,"familiar","far","sedan.jpg","firetruck.jpg","survey-text",9,117105,21,3,"car"
"598","testing","run",3057.49500000093,"tangram","isolated","F1.jpg","W1.jpg","survey-text",44,305832,23,3,"run"
"599","testing","hold",5850.21000000415,"tangram","isolated","H1.jpg","Y1.jpg","survey-text",45,312185,23,4,"hold"
"600","testing","color",10976.0049999995,"familiar","close","sedan.jpg","sportscar.jpg","survey-text",11,133122,21,5,"color"
"601","testing","stand",5551.47500000021,"tangram","far","H1.jpg","A2.jpg","survey-text",47,320913,23,5,"stand"
"602","testing","stationary",7042.29000001214,"tangram","far","I1.jpg","R1.jpg","survey-text",48,328458,23,10,"stationary"
"603","testing","run",3360.08500000753,"tangram","far","F1.jpg","C1.jpg","survey-text",49,332323,23,3,"run"
"604","testing","walk",2513.63000000129,"tangram","far","B1.jpg","O1.jpg","survey-text",50,335339,23,4,"walk"
"605","testing","small",16320.9099999995,"familiar","close","sparrow.jpg","eagle.jpg","survey-text",12,149985,21,5,"small"
"606","testing","bend",3497.86499999755,"tangram","far","K1.jpg","V1.jpg","survey-text",51,339340,23,4,"bend"
"607","testing","kneel",3225.45500000706,"tangram","far","G1.jpg","N1.jpg","survey-text",52,343068,23,5,"kneel"
"608","testing","run",3108.61500000465,"tangram","far","A1.jpg","D1.jpg","survey-text",53,346685,23,3,"run"
"609","testing","plain",10878.2549999996,"familiar","close","poloshirt.jpg","hawaiishirt.jpg","survey-text",13,161372,21,5,"plain"
"610","testing","jump",2481.7550000007,"tangram","far","E1.jpg","C2.jpg","survey-text",54,349669,23,4,"jump"
"611","testing","golden",8550.78499999945,"familiar","close","goldfish.jpg","swordfish.jpg","survey-text",14,170446,21,6,"golden"
"612","testing","dark",12110.3900000007,"familiar","close","grizzlybear.jpg","polarbear.jpg","survey-text",15,183083,21,4,"dark"
"613","testing","dinning",9880.005,"familiar","close","diningtable.jpg","picnictable.jpg","survey-text",16,193480,21,7,"din"
"614","testing","gems",6335.6300000005,"familiar","close","mnms.jpg","gummybears.jpg","survey-text",17,200323,21,4,"gem"
"615","testing","long",8760.04499999998,"familiar","close","germanshepherd.jpg","pug.jpg","survey-text",18,209602,21,4,"long"
"616","testing","bear",6038.68000000055,"familiar","isolated","grizzlybear.jpg","polarbear.jpg","survey-text",20,218866,21,4,"bear"
"617","testing","sparrow",9480.15500000017,"familiar","isolated","sparrow.jpg","eagle.jpg","survey-text",21,228862,21,7,"sparrow"
"618","testing","fish",6185.97500000033,"familiar","isolated","goldfish.jpg","swordfish.jpg","survey-text",22,235554,21,4,"fish"
"619","testing","shirt",6464.92499999929,"familiar","isolated","poloshirt.jpg","hawaiishirt.jpg","survey-text",23,242525,21,5,"shirt"
"620","testing","gems",10257.6799999997,"familiar","isolated","mnms.jpg","gummybears.jpg","survey-text",24,253299,21,4,"gem"
"621","testing","blue",8244.51000000045,"familiar","isolated","sedan.jpg","sportscar.jpg","survey-text",25,262055,21,4,"blue"
"622","testing","dog",5541.73499999981,"familiar","isolated","germanshepherd.jpg","pug.jpg","survey-text",26,268115,21,3,"dog"
"623","testing","table",6860.79999999946,"familiar","isolated","diningtable.jpg","picnictable.jpg","survey-text",27,275484,21,5,"table"
"624","testing","begging",16280.0299999999,"tangram","close","I1.jpg","J1.jpg","survey-text",29,366776,21,7,"beg"
"625","testing","serve",9945.31000000006,"tangram","close","K1.jpg","T1.jpg","survey-text",30,377230,21,5,"serve"
"626","testing","jump",7873.20000000001,"tangram","close","E1.jpg","F1.jpg","survey-text",31,385614,21,4,"jump"
"627","testing","leap",9984.4949999997,"tangram","close","F1.jpg","W1.jpg","survey-text",32,396113,21,4,"leap"
"628","testing","knee",9714.11499999982,"tangram","close","H1.jpg","Y1.jpg","survey-text",33,406347,21,4,"knee"
"629","testing","logo",13658.9999999851,"tangram","isolated","I1.jpg","J1.jpg","survey-text",2,35887,10,4,"logo"
"630","testing","down",9561.74500000087,"tangram","close","G1.jpg","M1.jpg","survey-text",34,416416,21,4,"down"
"631","testing","logo",6986.00000003353,"tangram","isolated","H1.jpg","Y1.jpg","survey-text",3,43374,10,4,"logo"
"632","testing","running",9759.54000000004,"tangram","close","A1.jpg","A2.jpg","survey-text",35,426691,21,7,"run"
"633","testing","walkingperson",8754.99999988824,"tangram","isolated","B1.jpg","P1.jpg","survey-text",4,52631,10,13,"walkingperson"
"634","testing","sad",7486.15999999945,"tangram","close","B1.jpg","P1.jpg","survey-text",36,434686,21,3,"sad"
"635","testing","sittingperson",9568.99999966845,"tangram","isolated","E1.jpg","F1.jpg","survey-text",5,62711,10,13,"sittingperson"
"636","testing","sad",4939.75000000041,"tangram","isolated","B1.jpg","P1.jpg","survey-text",38,442530,21,3,"sad"
"637","testing","dancingman",8712.99999998882,"tangram","isolated","A1.jpg","A2.jpg","survey-text",6,71932,10,10,"dancingman"
"638","testing","up",9376.94499999995,"tangram","isolated","F1.jpg","W1.jpg","survey-text",39,452427,21,2,"up"
"639","testing","beg",6491.8600000001,"tangram","isolated","H1.jpg","Y1.jpg","survey-text",40,459427,21,3,"beg"
"640","testing","somethingflying",13733.0000000075,"tangram","isolated","F1.jpg","W1.jpg","survey-text",7,86169,10,15,"somethingflying"
"641","testing","standingperson",9787.99999970943,"tangram","isolated","K1.jpg","T1.jpg","survey-text",8,96461,10,14,"standingperson"
"642","testing","running",12183.7400000004,"tangram","isolated","A1.jpg","A2.jpg","survey-text",41,472132,21,7,"run"
"643","testing","sittingwoman",6306.00000033155,"tangram","isolated","G1.jpg","M1.jpg","survey-text",9,103271,10,12,"sittingwoman"
"644","testing","jump",5987.13499999943,"tangram","isolated","E1.jpg","F1.jpg","survey-text",42,478625,21,4,"jump"
"645","testing","sit",6136.30499999999,"tangram","isolated","G1.jpg","M1.jpg","survey-text",43,485270,21,3,"sit"
"646","testing","car",6694.00000013411,"familiar","close","sedan.jpg","sportscar.jpg","survey-text",11,114668,10,3,"car"
"647","testing","beg",6768.1600000005,"tangram","isolated","I1.jpg","J1.jpg","survey-text",44,492558,21,3,"beg"
"648","testing","goldenfish",7236.00000003353,"familiar","close","goldfish.jpg","swordfish.jpg","survey-text",12,122412,10,10,"goldenfish"
"649","testing","lean",6141.60499999981,"tangram","isolated","K1.jpg","T1.jpg","survey-text",45,499221,21,4,"lean"
"650","testing","bird",4771.99999988079,"familiar","close","sparrow.jpg","eagle.jpg","survey-text",13,127694,10,4,"bird"
"651","testing","bear",4189.00000024587,"familiar","close","grizzlybear.jpg","polarbear.jpg","survey-text",14,132396,10,4,"bear"
"652","testing","sad",10095.115,"tangram","far","B1.jpg","O1.jpg","survey-text",47,512048,21,3,"sad"
"653","testing","dog",4905.00000026077,"familiar","close","germanshepherd.jpg","pug.jpg","survey-text",15,137814,10,3,"dog"
"654","testing","lean",6724.35500000027,"tangram","far","K1.jpg","V1.jpg","survey-text",48,519316,21,4,"lean"
"655","testing","tshirt",8172.00000025332,"familiar","close","poloshirt.jpg","hawaiishirt.jpg","survey-text",16,146495,10,6,"tshirt"
"656","testing","beg",6562.26499999955,"tangram","far","H1.jpg","A2.jpg","survey-text",49,526393,21,3,"beg"
"657","testing","candy",5808.00000019372,"familiar","close","mnms.jpg","gummybears.jpg","survey-text",17,152810,10,5,"candy"
"658","testing","table",4699.9999997206,"familiar","close","diningtable.jpg","picnictable.jpg","survey-text",18,158011,10,5,"table"
"659","testing","donate",13276.4699999999,"tangram","far","I1.jpg","R1.jpg","survey-text",50,540180,21,6,"donate"
"660","testing","candy",4072.00000016019,"familiar","isolated","mnms.jpg","gummybears.jpg","survey-text",20,169653,10,5,"candy"
"661","testing","bear",3547.00000025332,"familiar","isolated","grizzlybear.jpg","polarbear.jpg","survey-text",21,173708,10,4,"bear"
"662","testing","relax",9211.54000000015,"tangram","far","G1.jpg","N1.jpg","survey-text",51,549900,21,5,"relax"
"663","testing","tshirt",4125,"familiar","isolated","poloshirt.jpg","hawaiishirt.jpg","survey-text",22,178351,10,6,"tshirt"
"664","testing","car",2635.9999999404,"familiar","isolated","sedan.jpg","sportscar.jpg","survey-text",23,181495,10,3,"car"
"665","testing","dog",3245.99999981001,"familiar","isolated","germanshepherd.jpg","pug.jpg","survey-text",24,185249,10,3,"dog"
"666","testing","leap",12252.7400000008,"tangram","far","F1.jpg","C1.jpg","survey-text",52,562670,21,4,"leap"
"667","testing","bird",2934.00000035763,"familiar","isolated","sparrow.jpg","eagle.jpg","survey-text",25,188691,10,4,"bird"
"668","testing","table",4854.00000028312,"familiar","isolated","diningtable.jpg","picnictable.jpg","survey-text",26,194049,10,5,"table"
"669","testing","run",6770.03500000038,"tangram","far","A1.jpg","D1.jpg","survey-text",53,569953,21,3,"run"
"670","testing","fish",3466.99999971315,"familiar","isolated","goldfish.jpg","swordfish.jpg","survey-text",27,198032,10,4,"fish"
"671","testing","jump",5517.35999999987,"tangram","far","E1.jpg","C2.jpg","survey-text",54,575986,21,4,"jump"
"672","testing","bear",4211.00000012666,"familiar","far","grizzlybear.jpg","lion.jpg","survey-text",29,207569,10,4,"bear"
"673","testing","bird",3833.99999979883,"familiar","far","sparrow.jpg","squirrel.jpg","survey-text",30,211914,10,4,"bird"
"674","testing","tshirt",4239.0000000596,"familiar","far","poloshirt.jpg","dress.jpg","survey-text",31,216673,10,6,"tshirt"
"675","testing","dog",3211.00000012666,"familiar","far","germanshepherd.jpg","cow.jpg","survey-text",32,220391,10,3,"dog"
"676","testing","candy",3532.99999982119,"familiar","far","mnms.jpg","pretzels.jpg","survey-text",33,224432,10,5,"candy"
"677","testing","fish",3259.00000007823,"familiar","far","goldfish.jpg","iguana.jpg","survey-text",34,228208,10,4,"fish"
"678","testing","table",3875,"familiar","far","diningtable.jpg","wardrobe.jpg","survey-text",35,232591,10,5,"table"
"679","testing","car",2636.99999963865,"familiar","far","sedan.jpg","firetruck.jpg","survey-text",36,235736,10,3,"car"
"680","testing","standingperson",6174.99999981374,"tangram","far","K1.jpg","V1.jpg","survey-text",38,245935,10,14,"standingperson"
"681","testing","runningperson",7425.0000002794,"tangram","far","F1.jpg","C1.jpg","survey-text",39,253873,10,13,"runningperson"
"682","testing","dancingperon",6478.00000011921,"tangram","far","A1.jpg","D1.jpg","survey-text",40,260861,10,12,"dancingperon"
"683","testing","walkingperson",10385.9999999404,"tangram","far","B1.jpg","O1.jpg","survey-text",41,271754,10,13,"walkingperson"
"684","testing","man",7548.99999964982,"tangram","far","I1.jpg","R1.jpg","survey-text",42,279809,10,3,"man"
"685","testing","sittingperson",8811.99999991804,"tangram","far","E1.jpg","C2.jpg","survey-text",43,289143,10,13,"sittingperson"
"686","testing","sittingwoman",4753.00000002608,"tangram","far","G1.jpg","N1.jpg","survey-text",44,294402,10,12,"sittingwoman"
"687","testing","sittingperson",12203.9999999106,"tangram","far","H1.jpg","A2.jpg","survey-text",45,307111,10,13,"sittingperson"
"688","testing","sittingwoman",6879.00000018999,"tangram","close","G1.jpg","M1.jpg","survey-text",47,317821,10,12,"sittingwoman"
"689","testing","sittingman",4182.0000000298,"tangram","close","E1.jpg","F1.jpg","survey-text",48,322511,10,10,"sittingman"
"690","testing","runningone",6336.99999982491,"tangram","close","A1.jpg","A2.jpg","survey-text",49,329358,10,10,"runningone"
"691","testing","sittingone",4583.00000010058,"tangram","close","H1.jpg","Y1.jpg","survey-text",50,334449,10,10,"sittingone"
"692","testing","runningone",5496.99999997392,"tangram","close","F1.jpg","W1.jpg","survey-text",51,340449,10,10,"runningone"
"693","testing","person",8472.00000006706,"tangram","close","I1.jpg","J1.jpg","survey-text",52,349427,10,6,"person"
"694","testing","standingperson",6098.00000023097,"tangram","close","K1.jpg","T1.jpg","survey-text",53,356031,10,14,"standingperson"
"695","testing","walkingperson",5255.99999958649,"tangram","close","B1.jpg","P1.jpg","survey-text",54,361788,10,13,"walkingperson"
"696","testing","candy",10141.9649999998,"familiar","isolated","mnms.jpg","gummybears.jpg","survey-text",2,28858,14,5,"candy"
"697","testing","bear",9782.45500000003,"familiar","isolated","grizzlybear.jpg","polarbear.jpg","survey-text",3,39159,14,4,"bear"
"698","testing","dinning",12363.8500000002,"familiar","isolated","diningtable.jpg","picnictable.jpg","survey-text",4,52040,14,7,"din"
"699","testing","swimmer",12005.7200000001,"familiar","isolated","goldfish.jpg","swordfish.jpg","survey-text",5,64568,14,7,"swimmer"
"700","testing","travel",13802.1349999999,"familiar","isolated","sedan.jpg","sportscar.jpg","survey-text",6,78881,14,6,"travel"
"701","testing","protection",7169.08000000012,"familiar","isolated","germanshepherd.jpg","pug.jpg","survey-text",7,86576,14,10,"protection"
"702","testing","clothes",5436.65499999997,"familiar","isolated","poloshirt.jpg","hawaiishirt.jpg","survey-text",9,117331,14,7,"clothe"
"703","testing","bend",14733.89,"tangram","close","I1.jpg","J1.jpg","survey-text",11,137543,14,4,"bend"
"704","testing","run",3508.75499999983,"tangram","close","A1.jpg","A2.jpg","survey-text",12,141559,14,3,"run"
"705","testing","take",4525.09999999983,"tangram","close","H1.jpg","Y1.jpg","survey-text",13,146599,14,4,"take"
"706","testing","walking",19214.4400000002,"tangram","close","B1.jpg","P1.jpg","survey-text",14,166320,14,7,"walk"
"707","testing","bird",8570.88999999996,"tangram","close","F1.jpg","W1.jpg","survey-text",15,175413,14,4,"bird"
"708","testing","jump",4482.0199999999,"tangram","close","E1.jpg","F1.jpg","survey-text",16,180406,14,4,"jump"
"709","testing","reach",5546.48500000031,"tangram","close","K1.jpg","T1.jpg","survey-text",17,186469,14,5,"reach"
"710","testing","sit",3238.97000000032,"tangram","close","G1.jpg","M1.jpg","survey-text",18,190240,14,3,"sit"
"711","testing","run",15304.1800000001,"tangram","far","F1.jpg","C1.jpg","survey-text",20,208490,14,3,"run"
"712","testing","skipping",5355.12499999959,"tangram","far","A1.jpg","D1.jpg","survey-text",21,214360,14,8,"skip"
"713","testing","sitting",4669.49499999965,"tangram","far","G1.jpg","N1.jpg","survey-text",22,219545,14,7,"sit"
"714","testing","follow",6549.54999999973,"tangram","far","B1.jpg","O1.jpg","survey-text",23,226600,14,6,"follow"
"715","testing","give",6373.16000000009,"tangram","far","I1.jpg","R1.jpg","survey-text",24,233493,14,4,"give"
"716","testing","take",4816.91499999989,"tangram","far","H1.jpg","A2.jpg","survey-text",25,238826,14,4,"take"
"717","testing","forward",6550.33500000037,"tangram","far","K1.jpg","V1.jpg","survey-text",26,245888,14,7,"forward"
"718","testing","leap",4786.07000000009,"tangram","far","E1.jpg","C2.jpg","survey-text",27,251190,14,4,"leap"
"719","testing","baby",13279.09,"familiar","close","sparrow.jpg","eagle.jpg","survey-text",29,267269,14,4,"baby"
"720","testing","brown",10675.765,"familiar","close","grizzlybear.jpg","polarbear.jpg","survey-text",30,278456,14,5,"brown"
"721","testing","hard",5043.84000000032,"familiar","close","mnms.jpg","gummybears.jpg","survey-text",31,284017,14,4,"hard"
"722","testing","long",3829.99999999994,"familiar","close","diningtable.jpg","picnictable.jpg","survey-text",32,288371,14,4,"long"
"723","testing","big",5953.66999999987,"familiar","close","sedan.jpg","sportscar.jpg","survey-text",33,294842,14,3,"big"
"724","testing","plain",6839.11000000034,"familiar","close","poloshirt.jpg","hawaiishirt.jpg","survey-text",34,302197,14,5,"plain"
"725","testing","gold",4321.07999999973,"familiar","close","goldfish.jpg","swordfish.jpg","survey-text",35,307029,14,4,"gold"
"726","testing","big",6688.28500000021,"familiar","close","germanshepherd.jpg","pug.jpg","survey-text",36,314222,14,3,"big"
"727","testing","giving",8350.14999999973,"tangram","isolated","K1.jpg","T1.jpg","survey-text",38,324938,14,6,"give"
"728","testing","receiving",9504.59999999974,"tangram","isolated","H1.jpg","Y1.jpg","survey-text",39,334955,14,9,"receive"
"729","testing","running",4010.65000000014,"tangram","isolated","A1.jpg","A2.jpg","survey-text",40,339482,14,7,"run"
"730","testing","leaping",3720.79499999969,"tangram","isolated","F1.jpg","W1.jpg","survey-text",41,343712,14,7,"leap"
"731","testing","holding",6225.88,"tangram","isolated","I1.jpg","J1.jpg","survey-text",42,350459,14,7,"hold"
"732","testing","jumping",2788.41999999987,"tangram","isolated","E1.jpg","F1.jpg","survey-text",43,353762,14,7,"jump"
"733","testing","sitting",2069.41999999981,"tangram","isolated","G1.jpg","M1.jpg","survey-text",44,356338,14,7,"sit"
"734","testing","follwin",3063.16000000015,"tangram","isolated","B1.jpg","P1.jpg","survey-text",45,359908,14,7,"follwin"
"735","testing","bear",8901.66499999986,"familiar","far","grizzlybear.jpg","lion.jpg","survey-text",47,372808,14,4,"bear"
"736","testing","bird",2863.98000000004,"familiar","far","sparrow.jpg","squirrel.jpg","survey-text",48,376196,14,4,"bird"
"737","testing","shirt",1945.95500000013,"familiar","far","poloshirt.jpg","dress.jpg","survey-text",49,378649,14,5,"shirt"
"738","testing","car",1656.63500000024,"familiar","far","sedan.jpg","firetruck.jpg","survey-text",50,380821,14,3,"car"
"739","testing","fish",1728.42500000022,"familiar","far","goldfish.jpg","iguana.jpg","survey-text",51,383062,14,4,"fish"
"740","testing","dog",1726.35500000027,"familiar","far","germanshepherd.jpg","cow.jpg","survey-text",52,385295,14,3,"dog"
"741","testing","table",5853.02500000037,"familiar","far","diningtable.jpg","wardrobe.jpg","survey-text",53,391656,14,5,"table"
"742","testing","candy",5242.38500000001,"familiar","far","mnms.jpg","pretzels.jpg","survey-text",54,397406,14,5,"candy"
"743","testing","shapes",17309.9999999395,"tangram","isolated","G1.jpg","M1.jpg","survey-text",2,206302,17,6,"shape"
"744","testing","square",19919.9999999255,"tangram","isolated","E1.jpg","F1.jpg","survey-text",3,226781,17,6,"square"
"745","testing","running",8724.99999997672,"tangram","isolated","A1.jpg","A2.jpg","survey-text",5,279522,17,7,"run"
"746","testing","walking",18981.0000000289,"tangram","isolated","F1.jpg","W1.jpg","survey-text",6,299084,17,7,"walk"
"747","testing","bending",6787.00000001118,"tangram","isolated","B1.jpg","P1.jpg","survey-text",7,306402,17,7,"bend"
"748","testing","bending",13489.9999999907,"tangram","isolated","I1.jpg","J1.jpg","survey-text",8,320428,17,7,"bend"
"749","testing","reading",7564.00000001304,"tangram","isolated","H1.jpg","Y1.jpg","survey-text",9,328547,17,7,"read"
"750","testing","dog",13967.9999999935,"familiar","far","germanshepherd.jpg","cow.jpg","survey-text",11,348206,17,3,"dog"
"751","testing","table",6363.00000001211,"familiar","far","diningtable.jpg","wardrobe.jpg","survey-text",12,355090,17,5,"table"
"752","testing","car",5165.99999996834,"familiar","far","sedan.jpg","firetruck.jpg","survey-text",14,406595,17,3,"car"
"753","testing","shirt",8062.00000003446,"familiar","far","poloshirt.jpg","dress.jpg","survey-text",15,415194,17,5,"shirt"
"754","testing","sweet",12316.9999999227,"familiar","far","mnms.jpg","pretzels.jpg","survey-text",16,428031,17,5,"sweet"
"755","testing","fish",5161.00000008009,"familiar","far","goldfish.jpg","iguana.jpg","survey-text",17,433712,17,4,"fish"
"756","testing","sitting",8790.00000003725,"tangram","close","E1.jpg","F1.jpg","survey-text",20,471292,17,7,"sit"
"757","testing","readinf",17012.999999919,"tangram","close","H1.jpg","Y1.jpg","survey-text",21,488824,17,7,"readinf"
"758","testing","bending",13386.0000000568,"tangram","close","K1.jpg","T1.jpg","survey-text",22,502803,17,7,"bend"
"759","testing","running",6569.99999994878,"tangram","close","A1.jpg","A2.jpg","survey-text",23,509901,17,7,"run"
"760","testing","bending",6459.99999996275,"tangram","close","B1.jpg","P1.jpg","survey-text",24,516900,17,7,"bend"
"761","testing","sitting",8372.00000009034,"tangram","close","G1.jpg","M1.jpg","survey-text",25,525794,17,7,"sit"
"762","testing","bending",9162.00000001118,"tangram","close","I1.jpg","J1.jpg","survey-text",26,535481,17,7,"bend"
"763","testing","running",7415.99999996834,"tangram","close","F1.jpg","W1.jpg","survey-text",27,543441,17,7,"run"
"764","testing","sweet",5037.99999994226,"familiar","close","mnms.jpg","gummybears.jpg","survey-text",29,552097,17,5,"sweet"
"765","testing","bird",7772.99999992829,"familiar","close","sparrow.jpg","eagle.jpg","survey-text",30,560395,17,4,"bird"
"766","testing","shirt",7381.00000005215,"familiar","close","poloshirt.jpg","hawaiishirt.jpg","survey-text",31,568290,17,5,"shirt"
"767","testing","dog",5211.00000001024,"familiar","close","germanshepherd.jpg","pug.jpg","survey-text",32,574021,17,3,"dog"
"768","testing","fish",6513.00000003539,"familiar","close","goldfish.jpg","swordfish.jpg","survey-text",33,581137,17,4,"fish"
"769","testing","table",5851.9999999553,"familiar","close","diningtable.jpg","picnictable.jpg","survey-text",34,587504,17,5,"table"
"770","testing","bear",6913.99999998976,"familiar","close","grizzlybear.jpg","polarbear.jpg","survey-text",35,594953,17,4,"bear"
"771","testing","car",7456.00000000559,"familiar","close","sedan.jpg","sportscar.jpg","survey-text",36,602987,17,3,"car"
"772","testing","dog",7415.00000003725,"familiar","isolated","germanshepherd.jpg","pug.jpg","survey-text",38,613828,17,3,"dog"
"773","testing","shirt",6244.00000006426,"familiar","isolated","poloshirt.jpg","hawaiishirt.jpg","survey-text",39,620628,17,5,"shirt"
"774","testing","fish",5609.99999998603,"familiar","isolated","goldfish.jpg","swordfish.jpg","survey-text",40,626799,17,4,"fish"
"775","testing","sweet",5282.00000000652,"familiar","isolated","mnms.jpg","gummybears.jpg","survey-text",41,632607,17,5,"sweet"
"776","testing","car",6770.00000001863,"familiar","isolated","sedan.jpg","sportscar.jpg","survey-text",42,639905,17,3,"car"
"777","testing","bird",6486.99999996461,"familiar","isolated","sparrow.jpg","eagle.jpg","survey-text",43,646929,17,4,"bird"
"778","testing","bear",4922.00000002049,"familiar","isolated","grizzlybear.jpg","polarbear.jpg","survey-text",44,652389,17,4,"bear"
"779","testing","table",4454.99999995809,"familiar","isolated","diningtable.jpg","picnictable.jpg","survey-text",45,657369,17,5,"table"
"780","testing","running",6381.99999998324,"tangram","far","A1.jpg","D1.jpg","survey-text",47,666933,17,7,"run"
"781","testing","sitting",5626.0000000475,"tangram","far","G1.jpg","N1.jpg","survey-text",48,673076,17,7,"sit"
"782","testing","bending",5907.00000000652,"tangram","far","K1.jpg","V1.jpg","survey-text",49,679503,17,7,"bend"
"783","testing","walking",17868.9999999478,"tangram","far","F1.jpg","C1.jpg","survey-text",50,697907,17,7,"walk"
"784","testing","bending",8910.99999996368,"tangram","far","B1.jpg","O1.jpg","survey-text",52,737550,17,7,"bend"
"785","testing","reading",9893.99999997113,"tangram","far","I1.jpg","R1.jpg","survey-text",53,748013,17,7,"read"
"786","testing","sitting",6514.00000008289,"tangram","far","E1.jpg","C2.jpg","survey-text",54,755042,17,7,"sit"
"787","testing","shirt",6511.05500000995,"familiar","far","poloshirt.jpg","dress.jpg","survey-text",2,40383,29,5,"shirt"
"788","testing","bird",5011.39499997953,"familiar","far","sparrow.jpg","squirrel.jpg","survey-text",3,45897,29,4,"bird"
"789","testing","dog",2755.70500001777,"familiar","far","germanshepherd.jpg","cow.jpg","survey-text",4,49156,29,3,"dog"
"790","testing","goldfish",3759.19000001159,"familiar","far","goldfish.jpg","iguana.jpg","survey-text",5,53417,29,8,"goldfish"
"791","testing","bear",2695.47500001499,"familiar","far","grizzlybear.jpg","lion.jpg","survey-text",6,56615,29,4,"bear"
"792","testing","table",3567.79500003904,"familiar","far","diningtable.jpg","wardrobe.jpg","survey-text",7,60685,29,5,"table"
"793","testing","candy",2645.09500004351,"familiar","far","mnms.jpg","pretzels.jpg","survey-text",8,63833,29,5,"candy"
"794","testing","car",2591.79999999469,"familiar","far","sedan.jpg","firetruck.jpg","survey-text",9,66928,29,3,"car"
"795","testing","sitting",5109.35500002233,"tangram","far","G1.jpg","N1.jpg","survey-text",11,76175,29,7,"sit"
"796","testing","running",5571.94999995409,"tangram","far","A1.jpg","D1.jpg","survey-text",12,82249,29,7,"run"
"797","testing","jumping",3392.43000000715,"tangram","far","E1.jpg","C2.jpg","survey-text",13,86145,29,7,"jump"
"798","testing","running",5035.26999999303,"tangram","far","F1.jpg","C1.jpg","survey-text",14,91682,29,7,"run"
"799","testing","serving",3220.83500004373,"tangram","far","I1.jpg","R1.jpg","survey-text",15,95405,29,7,"serve"
"800","testing","holding",3677.51499998849,"tangram","far","H1.jpg","A2.jpg","survey-text",16,99585,29,7,"hold"
"801","testing","dejected",5153.0849999981,"tangram","far","B1.jpg","O1.jpg","survey-text",17,105240,29,8,"deject"
"802","testing","pleading",3552.47500003316,"tangram","far","K1.jpg","V1.jpg","survey-text",18,109296,29,8,"plead"
"803","testing","sparrow",5351.48000001209,"familiar","close","sparrow.jpg","eagle.jpg","survey-text",20,118425,29,7,"sparrow"
"804","testing","goldfish",3937.03500000993,"familiar","close","goldfish.jpg","swordfish.jpg","survey-text",21,122865,29,8,"goldfish"
"805","testing","sedan",6088.17499998258,"familiar","close","sedan.jpg","sportscar.jpg","survey-text",22,129455,29,5,"sedan"
"806","testing","shirt",12541.6850000038,"familiar","close","poloshirt.jpg","hawaiishirt.jpg","survey-text",23,142500,29,5,"shirt"
"807","testing","german",4977.01999999117,"familiar","close","germanshepherd.jpg","pug.jpg","survey-text",24,147979,29,6,"german"
"808","testing","table",4569.35999996495,"familiar","close","diningtable.jpg","picnictable.jpg","survey-text",25,153051,29,5,"table"
"809","testing","chocolate",5550.4999999539,"familiar","close","mnms.jpg","gummybears.jpg","survey-text",26,159105,29,9,"chocolate"
"810","testing","grizzly",5591.24500001781,"familiar","close","grizzlybear.jpg","polarbear.jpg","survey-text",27,165199,29,7,"grizzly"
"811","testing","table",2657.39000000758,"familiar","isolated","diningtable.jpg","picnictable.jpg","survey-text",29,169977,29,5,"table"
"812","testing","sedan",2159.73999997368,"familiar","isolated","sedan.jpg","sportscar.jpg","survey-text",30,172639,29,5,"sedan"
"813","testing","grizzly",2656.51500003878,"familiar","isolated","grizzlybear.jpg","polarbear.jpg","survey-text",31,175798,29,7,"grizzly"
"814","testing","shirt",1995.79499999527,"familiar","isolated","poloshirt.jpg","hawaiishirt.jpg","survey-text",32,178297,29,5,"shirt"
"815","testing","chocolate",3153.78500003135,"familiar","isolated","mnms.jpg","gummybears.jpg","survey-text",33,181953,29,9,"chocolate"
"816","testing","goldfish",2894.09499999601,"familiar","isolated","goldfish.jpg","swordfish.jpg","survey-text",34,185350,29,8,"goldfish"
"817","testing","german",1996.05000001611,"familiar","isolated","germanshepherd.jpg","pug.jpg","survey-text",35,187848,29,6,"german"
"818","testing","sparrow",2250.27000001865,"familiar","isolated","sparrow.jpg","eagle.jpg","survey-text",36,190601,29,7,"sparrow"
"819","testing","dejected",3681.76999996649,"tangram","close","B1.jpg","P1.jpg","survey-text",38,196485,29,8,"deject"
"820","testing","pleading",4524.61999998195,"tangram","close","K1.jpg","T1.jpg","survey-text",39,201513,29,8,"plead"
"821","testing","sitting",2764.84499999788,"tangram","close","G1.jpg","M1.jpg","survey-text",40,204780,29,7,"sit"
"822","testing","jaunt",18153.5450000083,"tangram","close","A1.jpg","A2.jpg","survey-text",41,223436,29,5,"jaunt"
"823","testing","serving",3535.64000001643,"tangram","close","I1.jpg","J1.jpg","survey-text",42,227474,29,7,"serve"
"824","testing","holding",3357.37500002142,"tangram","close","H1.jpg","Y1.jpg","survey-text",43,231335,29,7,"hold"
"825","testing","leaping",2969.42999999737,"tangram","close","E1.jpg","F1.jpg","survey-text",44,234807,29,7,"leap"
"826","testing","fleeing",5385.88000001619,"tangram","close","F1.jpg","W1.jpg","survey-text",45,240696,29,7,"flee"
"827","testing","dejected",3426.43500003032,"tangram","isolated","B1.jpg","P1.jpg","survey-text",47,246246,29,8,"deject"
"828","testing","holding",2313.64000000758,"tangram","isolated","H1.jpg","Y1.jpg","survey-text",48,249062,29,7,"hold"
"829","testing","sitting",2251.22999999439,"tangram","isolated","G1.jpg","M1.jpg","survey-text",49,251816,29,7,"sit"
