iterationName,utterance,rt,target_type,competitor_type,target,foil,trial_type,trial_index,time_elapsed,anonymized_id
testing,NA,9167.809999999918,NA,NA,NA,NA,html-button-response,0,9173,24
testing,NA,3764.5649999999478,NA,NA,NA,NA,html-button-response,1,13948,24
testing,NA,74388.39999999618,NA,NA,NA,NA,html-button-response,0,74392,28
testing,table,4867.2100000001155,familiar,isolated,diningtable.jpg,picnictable.jpg,survey-text,2,19330,24
testing,NA,2328.0999999988126,NA,NA,NA,NA,html-button-response,1,77742,28
testing,candy,3957.510000000184,familiar,isolated,mnms.jpg,gummybears.jpg,survey-text,3,23805,24
testing,bird,3667.1349999999184,familiar,isolated,sparrow.jpg,eagle.jpg,survey-text,4,27994,24
testing,walker,8399.714999992284,tangram,far,B1.jpg,O1.jpg,survey-text,2,86657,28
testing,shirt,4731.379999999946,familiar,isolated,poloshirt.jpg,hawaiishirt.jpg,survey-text,5,33241,24
testing,jump,4747.159999998985,tangram,far,E1.jpg,C2.jpg,survey-text,3,91908,28
testing,car,3854.325000000019,familiar,isolated,sedan.jpg,sportscar.jpg,survey-text,6,37609,24
testing,catch,4044.020000001183,tangram,far,F1.jpg,C1.jpg,survey-text,4,96458,28
testing,bear,4646.650000000132,familiar,isolated,grizzlybear.jpg,polarbear.jpg,survey-text,7,42768,24
testing,lean,4911.684999999125,tangram,far,K1.jpg,V1.jpg,survey-text,5,101874,28
testing,goldfish,5905.004999999845,familiar,isolated,goldfish.jpg,swordfish.jpg,survey-text,8,49188,24
testing,pray,6466.260000001057,tangram,far,H1.jpg,A2.jpg,survey-text,6,108845,28
testing,dog,5718.730000000054,familiar,isolated,germanshepherd.jpg,pug.jpg,survey-text,9,55422,24
testing,run,4499.655000006896,tangram,far,A1.jpg,D1.jpg,survey-text,7,113850,28
testing,NA,3848.5749999999825,NA,NA,NA,NA,html-button-response,10,59782,24
testing,kneel,4749.414999998407,tangram,far,G1.jpg,N1.jpg,survey-text,8,119103,28
testing,serve,6940.549999999348,tangram,far,I1.jpg,R1.jpg,survey-text,9,126547,28
testing,NA,2453.2000000035623,NA,NA,NA,NA,html-button-response,10,129512,28
testing,fish,11536.640000000029,familiar,close,goldfish.jpg,swordfish.jpg,survey-text,11,71831,24
testing,kneel,4009.5650000002934,tangram,close,G1.jpg,M1.jpg,survey-text,11,134025,28
testing,solid,7104.77499999979,familiar,close,poloshirt.jpg,hawaiishirt.jpg,survey-text,12,79448,24
testing,dog,9214.705000005779,tangram,close,K1.jpg,T1.jpg,survey-text,12,143745,28
testing,shepherd,7542.914999999994,familiar,close,germanshepherd.jpg,pug.jpg,survey-text,13,87503,24
testing,jump,6365.414999992936,tangram,close,E1.jpg,F1.jpg,survey-text,13,150614,28
testing,grizzly,7273.800000000163,familiar,close,grizzlybear.jpg,polarbear.jpg,survey-text,14,95302,24
testing,interior,9399.539999999892,familiar,close,diningtable.jpg,picnictable.jpg,survey-text,15,105215,24
testing,practical,13994.71500000004,familiar,close,sedan.jpg,sportscar.jpg,survey-text,16,119721,24
testing,bird,30160.345000011148,tangram,close,A1.jpg,A2.jpg,survey-text,14,181278,28
testing,common,5537.739999999976,familiar,close,sparrow.jpg,eagle.jpg,survey-text,17,125774,24
testing,classic,14001.76499999997,familiar,close,mnms.jpg,gummybears.jpg,survey-text,18,140285,24
testing,NA,2146.195000000036,NA,NA,NA,NA,html-button-response,19,142937,24
testing,shirt,6816.914999999892,familiar,far,poloshirt.jpg,dress.jpg,survey-text,20,150263,24
testing,bird,6108.7650000001595,familiar,far,sparrow.jpg,squirrel.jpg,survey-text,21,156886,24
testing,candy,6537.949999999924,familiar,far,mnms.jpg,pretzels.jpg,survey-text,22,163930,24
testing,dog,5129.815000000031,familiar,far,germanshepherd.jpg,cow.jpg,survey-text,23,169567,24
testing,car,3712.6200000000244,familiar,far,sedan.jpg,firetruck.jpg,survey-text,24,173793,24
testing,table,4901.714999999967,familiar,far,diningtable.jpg,wardrobe.jpg,survey-text,25,179205,24
testing,grizzly,5968.169999999867,familiar,far,grizzlybear.jpg,lion.jpg,survey-text,26,185692,24
testing,goldfish,9008.514999999985,familiar,far,goldfish.jpg,iguana.jpg,survey-text,27,195211,24
testing,NA,2007.5450000001583,NA,NA,NA,NA,html-button-response,28,197725,24
testing,person,8541.844999999972,tangram,close,H1.jpg,Y1.jpg,survey-text,29,206776,24
testing,jump,5588.229999999836,tangram,close,E1.jpg,F1.jpg,survey-text,30,212868,24
testing,catch,8749.540000000037,tangram,close,F1.jpg,W1.jpg,survey-text,31,222130,24
testing,walk,6634.1500000000815,tangram,close,B1.jpg,P1.jpg,survey-text,32,229268,24
testing,sit,7013.229999999807,tangram,close,G1.jpg,M1.jpg,survey-text,33,236796,24
testing,run,4289.524999999936,tangram,close,A1.jpg,A2.jpg,survey-text,34,241603,24
testing,offer,5343.19499999992,tangram,close,I1.jpg,J1.jpg,survey-text,35,247463,24
testing,bow,8801.944999999949,tangram,close,K1.jpg,T1.jpg,survey-text,36,256779,24
testing,NA,1696.2849999999744,NA,NA,NA,NA,html-button-response,37,258977,24
testing,sit,5492.5100000000675,tangram,far,G1.jpg,N1.jpg,survey-text,38,264988,24
testing,offer,3898.7050000000745,tangram,far,I1.jpg,R1.jpg,survey-text,39,269391,24
testing,hold,8092.795000000042,tangram,far,H1.jpg,A2.jpg,survey-text,40,277996,24
testing,run,4907.595000000147,tangram,far,A1.jpg,D1.jpg,survey-text,41,283412,24
testing,offer,4212.479999999923,tangram,far,K1.jpg,V1.jpg,survey-text,42,288130,24
testing,jump,5162.925000000105,tangram,far,E1.jpg,C2.jpg,survey-text,43,293801,24
testing,catch,5273.539999999921,tangram,far,F1.jpg,C1.jpg,survey-text,44,299578,24
testing,walk,4680.285000000149,tangram,far,B1.jpg,O1.jpg,survey-text,45,304772,24
testing,NA,1900.645000000135,NA,NA,NA,NA,html-button-response,46,307179,24
testing,walk,6032.2900000000955,tangram,isolated,B1.jpg,P1.jpg,survey-text,47,313717,24
testing,jump,4270.42499999993,tangram,isolated,E1.jpg,F1.jpg,survey-text,48,318497,24
testing,hold,3902.4400000000605,tangram,isolated,H1.jpg,Y1.jpg,survey-text,49,322910,24
testing,run,4042.430000000226,tangram,isolated,A1.jpg,A2.jpg,survey-text,50,327457,24
testing,offer,6848.90000000014,tangram,isolated,I1.jpg,J1.jpg,survey-text,51,334822,24
testing,offer,4550.285000000033,tangram,isolated,K1.jpg,T1.jpg,survey-text,52,339882,24
testing,catch,4700.559999999998,tangram,isolated,F1.jpg,W1.jpg,survey-text,53,345097,24
testing,sit,3699.914999999921,tangram,isolated,G1.jpg,M1.jpg,survey-text,54,349311,24
testing,NA,648887.1199999994,NA,NA,NA,NA,html-button-response,0,648894,8
testing,NA,1126.3749999998836,NA,NA,NA,NA,html-button-response,1,651028,8
testing,M&M's,13513.585000000661,familiar,close,mnms.jpg,gummybears.jpg,survey-text,2,665047,8
testing,finch,5314.619999997434,familiar,close,sparrow.jpg,eagle.jpg,survey-text,3,670867,8
testing,brown,6682.220000002417,familiar,close,grizzlybear.jpg,polarbear.jpg,survey-text,4,678053,8
testing,gold,5332.665000001667,familiar,close,goldfish.jpg,swordfish.jpg,survey-text,5,683890,8
testing,blue,3366.7500000009313,familiar,close,sedan.jpg,sportscar.jpg,survey-text,6,687761,8
testing,german,3579.834999996936,familiar,close,germanshepherd.jpg,pug.jpg,survey-text,7,691845,8
testing,indoor,4798.979999999516,familiar,close,diningtable.jpg,picnictable.jpg,survey-text,8,697147,8
testing,polo,3689.1600000016624,familiar,close,poloshirt.jpg,hawaiishirt.jpg,survey-text,9,701340,8
testing,NA,5570.214999999851,NA,NA,NA,NA,html-button-response,10,707412,8
testing,run,5644.655000003753,tangram,far,A1.jpg,D1.jpg,survey-text,11,713561,8
testing,leap,4257.344999998109,tangram,far,E1.jpg,C2.jpg,survey-text,12,718321,8
testing,sulk,7512.640000000829,tangram,far,B1.jpg,O1.jpg,survey-text,13,726337,8
testing,lift,4273.549999997951,tangram,far,F1.jpg,C1.jpg,survey-text,14,731114,8
testing,pray,6631.890000004205,tangram,far,H1.jpg,A2.jpg,survey-text,15,738250,8
testing,sit,5081.979999995325,tangram,far,G1.jpg,N1.jpg,survey-text,16,743835,8
testing,bend,20198.230000001844,tangram,far,K1.jpg,V1.jpg,survey-text,17,764538,8
testing,eat,4232.085000003339,tangram,far,I1.jpg,R1.jpg,survey-text,18,769275,8
testing,NA,13064.500000000466,NA,NA,NA,NA,html-button-response,19,782843,8
testing,sad,8967.105000003241,tangram,isolated,B1.jpg,P1.jpg,survey-text,20,792314,8
testing,NA,12886.000000173226,NA,NA,NA,NA,html-button-response,0,12898,20
testing,NA,7904.799999902025,NA,NA,NA,NA,html-button-response,1,21824,20
testing,Shirt,8891.700000036508,familiar,close,poloshirt.jpg,hawaiishirt.jpg,survey-text,2,31252,20
testing,shepard,11798.900000052527,familiar,close,germanshepherd.jpg,pug.jpg,survey-text,3,43563,20
testing,round,9253.59999993816,familiar,close,mnms.jpg,gummybears.jpg,survey-text,4,53347,20
testing,brown,7711.499999975786,familiar,close,grizzlybear.jpg,polarbear.jpg,survey-text,5,61589,20
testing,Blue,7353.800000157207,familiar,close,sedan.jpg,sportscar.jpg,survey-text,6,69471,20
testing,gold,3462.7999998629093,familiar,close,goldfish.jpg,swordfish.jpg,survey-text,7,73465,20
testing,offer,172637.8249999981,tangram,isolated,I1.jpg,J1.jpg,survey-text,21,965455,8
testing,leap,3620.4500000022817,tangram,isolated,E1.jpg,F1.jpg,survey-text,22,969579,8
testing,Long,11306.899999966845,familiar,close,diningtable.jpg,picnictable.jpg,survey-text,8,85302,20
testing,skip,5388.9500000005355,tangram,isolated,A1.jpg,A2.jpg,survey-text,23,975471,8
testing,Small,8346.800000173971,familiar,close,sparrow.jpg,eagle.jpg,survey-text,9,94176,20
testing,lift,9075.240000005579,tangram,isolated,F1.jpg,W1.jpg,survey-text,24,985051,8
testing,pray,3755.2800000049174,tangram,isolated,H1.jpg,Y1.jpg,survey-text,25,989310,8
testing,reach,3704.760000000475,tangram,isolated,K1.jpg,T1.jpg,survey-text,26,993517,8
testing,sit,2853.9000000017695,tangram,isolated,G1.jpg,M1.jpg,survey-text,27,996874,8
testing,NA,1971.870000001276,NA,NA,NA,NA,html-button-response,28,999349,8
testing,shirt,5158.775000003632,familiar,far,poloshirt.jpg,dress.jpg,survey-text,29,1005012,8
testing,table,3072.050000002375,familiar,far,diningtable.jpg,wardrobe.jpg,survey-text,30,1008587,8
testing,fish,3481.005000001518,familiar,far,goldfish.jpg,iguana.jpg,survey-text,31,1012572,8
testing,bear,2882.194999998319,familiar,far,grizzlybear.jpg,lion.jpg,survey-text,32,1015958,8
testing,bird,3531.2049999992596,familiar,far,sparrow.jpg,squirrel.jpg,survey-text,33,1019994,8
testing,NA,1835.3000000001884,NA,NA,NA,NA,html-button-response,0,1840,6
testing,NA,3817.609999999604,NA,NA,NA,NA,html-button-response,1,6665,6
testing,candy,34995.18499999982,familiar,far,mnms.jpg,pretzels.jpg,survey-text,34,1055493,8
testing,NA,51503.81500000367,NA,NA,NA,NA,html-button-response,0,51507,19
testing,car,4956.369999999879,familiar,far,sedan.jpg,firetruck.jpg,survey-text,35,1060953,8
testing,NA,2795.7549999991897,NA,NA,NA,NA,html-button-response,1,55318,19
testing,dog,2975.9750000012573,familiar,far,germanshepherd.jpg,cow.jpg,survey-text,36,1064434,8
testing,NA,1963.7499999953434,NA,NA,NA,NA,html-button-response,37,1066900,8
testing,dark,5672.495000006165,familiar,close,grizzlybear.jpg,polarbear.jpg,survey-text,2,61495,19
testing,dog,17687.7199999999,familiar,far,germanshepherd.jpg,cow.jpg,survey-text,2,24865,6
testing,gold,2967.879999996512,familiar,close,goldfish.jpg,swordfish.jpg,survey-text,3,64966,19
testing,m&m,6420.4800000002215,familiar,far,mnms.jpg,pretzels.jpg,survey-text,3,31794,6
testing,hard,9930.80000000191,familiar,close,mnms.jpg,gummybears.jpg,survey-text,4,75414,19
testing,plain,4735.155000002123,familiar,close,poloshirt.jpg,hawaiishirt.jpg,survey-text,5,80662,19
testing,inside,4418.36000001058,familiar,close,diningtable.jpg,picnictable.jpg,survey-text,6,85598,19
testing,small,2745.2550000016345,familiar,close,sparrow.jpg,eagle.jpg,survey-text,7,88854,19
testing,commuter,4656.295000007958,familiar,close,sedan.jpg,sportscar.jpg,survey-text,8,94014,19
testing,big,2888.919999997597,familiar,close,germanshepherd.jpg,pug.jpg,survey-text,9,97414,19
testing,shirt,29511.015000000043,familiar,far,poloshirt.jpg,dress.jpg,survey-text,4,61811,6
testing,NA,2930.5349999922328,NA,NA,NA,NA,html-button-response,10,100851,19
testing,abstract,6609.940000009374,tangram,close,F1.jpg,W1.jpg,survey-text,11,107966,19
testing,man,3810.2149999904213,tangram,close,H1.jpg,Y1.jpg,survey-text,12,112295,19
testing,giving,4700.909999999567,tangram,close,I1.jpg,J1.jpg,survey-text,13,117510,19
testing,sit,59023.97000000207,tangram,close,G1.jpg,M1.jpg,survey-text,38,1126428,8
testing,car,22480.939999999915,familiar,far,sedan.jpg,firetruck.jpg,survey-text,5,84798,6
testing,thin,6289.734999998473,tangram,close,A1.jpg,A2.jpg,survey-text,14,124310,19
testing,leaning,3260.425000000396,tangram,close,B1.jpg,P1.jpg,survey-text,15,128078,19
testing,lean,7288.825000003213,tangram,close,K1.jpg,T1.jpg,survey-text,39,1134221,8
testing,leap,4906.074999999022,tangram,close,E1.jpg,F1.jpg,survey-text,40,1139630,8
testing,jumping,7338.215000010678,tangram,close,E1.jpg,F1.jpg,survey-text,16,135918,19
testing,sulk,3222.4700000006706,tangram,close,B1.jpg,P1.jpg,survey-text,41,1143356,8
testing,table,14793.020000000062,familiar,far,diningtable.jpg,wardrobe.jpg,survey-text,6,100098,6
testing,slim,3252.4649999977555,tangram,close,G1.jpg,M1.jpg,survey-text,17,139679,19
testing,reach,3343.710000000894,tangram,close,F1.jpg,W1.jpg,survey-text,42,1147203,8
testing,leaning,3751.0049999982584,tangram,close,K1.jpg,T1.jpg,survey-text,18,143934,19
testing,offer,3312.2149999979883,tangram,close,H1.jpg,Y1.jpg,survey-text,43,1151019,8
testing,NA,2201.084999993327,NA,NA,NA,NA,html-button-response,19,146651,19
testing,jump,2939.9450000055367,tangram,far,E1.jpg,C2.jpg,survey-text,20,150094,19
testing,stand,2815.744999999879,tangram,far,G1.jpg,N1.jpg,survey-text,21,153422,19
testing,straight,6052.0050000050105,tangram,far,H1.jpg,A2.jpg,survey-text,22,159983,19
testing,bird,21888.350000000166,familiar,far,sparrow.jpg,squirrel.jpg,survey-text,7,122496,6
testing,bear,5621.83000000006,familiar,far,grizzlybear.jpg,lion.jpg,survey-text,8,128624,6
testing,running,6334.644999995362,tangram,far,A1.jpg,D1.jpg,survey-text,23,166830,19
testing,fish,2870.085000000021,familiar,far,goldfish.jpg,iguana.jpg,survey-text,9,132006,6
testing,leaning,2382.5550000037765,tangram,far,K1.jpg,V1.jpg,survey-text,24,169719,19
testing,NA,959.0199999997858,NA,NA,NA,NA,html-button-response,10,133468,6
testing,running,4079.165000002831,tangram,far,F1.jpg,C1.jpg,survey-text,25,174310,19
testing,walking,3785.1450000016484,tangram,far,B1.jpg,O1.jpg,survey-text,26,178598,19
testing,man,7578.939999999886,tangram,far,K1.jpg,V1.jpg,survey-text,11,141555,6
testing,giving,2426.930000001448,tangram,far,I1.jpg,R1.jpg,survey-text,27,181534,19
testing,NA,2415.4600000038045,NA,NA,NA,NA,html-button-response,28,184464,19
testing,skip,41716.05500000459,tangram,close,A1.jpg,A2.jpg,survey-text,44,1193239,8
testing,statue,7904.674999999785,tangram,far,G1.jpg,N1.jpg,survey-text,12,149968,6
testing,table,5360.5349999998,familiar,isolated,diningtable.jpg,picnictable.jpg,survey-text,29,190334,19
testing,bend,3869.109999999637,tangram,close,I1.jpg,J1.jpg,survey-text,45,1197613,8
testing,NA,2478.349999997532,NA,NA,NA,NA,html-button-response,46,1200595,8
testing,car,4973.0750000017,familiar,isolated,sedan.jpg,sportscar.jpg,survey-text,30,195815,19
testing,stand,8752.160000000003,tangram,far,H1.jpg,A2.jpg,survey-text,13,159230,6
testing,dog,1807.925000000978,familiar,isolated,germanshepherd.jpg,pug.jpg,survey-text,31,198135,19
testing,bird,2424.479999986943,familiar,isolated,sparrow.jpg,eagle.jpg,survey-text,32,201063,19
testing,small,5944.4150000051595,familiar,isolated,sparrow.jpg,eagle.jpg,survey-text,47,1207045,8
testing,bear,1832.4349999893457,familiar,isolated,grizzlybear.jpg,polarbear.jpg,survey-text,33,203407,19
testing,colorful,3758.910000004107,familiar,isolated,mnms.jpg,gummybears.jpg,survey-text,48,1211307,8
testing,goldfish,3275.7200000050943,familiar,isolated,goldfish.jpg,swordfish.jpg,survey-text,34,207199,19
testing,candy,2569.9900000035996,familiar,isolated,mnms.jpg,gummybears.jpg,survey-text,35,210271,19
testing,shirt,1620.8350000088103,familiar,isolated,poloshirt.jpg,hawaiishirt.jpg,survey-text,36,212400,19
testing,NA,3064.814999990631,NA,NA,NA,NA,html-button-response,37,215980,19
testing,gold,4901.194999998552,familiar,far,goldfish.jpg,iguana.jpg,survey-text,38,221399,19
testing,bear,2013.2199999934528,familiar,far,grizzlybear.jpg,lion.jpg,survey-text,39,223926,19
testing,candy,3271.9749999960186,familiar,far,mnms.jpg,pretzels.jpg,survey-text,40,227711,19
testing,shirt,2158.6950000055367,familiar,far,poloshirt.jpg,dress.jpg,survey-text,41,230375,19
testing,car,2668.5600000055274,familiar,far,sedan.jpg,firetruck.jpg,survey-text,42,233550,19
testing,NA,51653.82499998668,NA,NA,NA,NA,html-button-response,0,51664,30
testing,bird,1684.6799999912037,familiar,far,sparrow.jpg,squirrel.jpg,survey-text,43,235743,19
testing,dog,1602.8200000000652,familiar,far,germanshepherd.jpg,cow.jpg,survey-text,44,237862,19
testing,NA,3109.370000020135,NA,NA,NA,NA,html-button-response,1,55784,30
testing,table,1758.1649999920046,familiar,far,diningtable.jpg,wardrobe.jpg,survey-text,45,240134,19
testing,NA,1986.0250000056112,NA,NA,NA,NA,html-button-response,46,242623,19
testing,jumping,6797.565000000759,tangram,isolated,E1.jpg,F1.jpg,survey-text,47,249935,19
testing,graduate,16778.954999987036,tangram,far,H1.jpg,A2.jpg,survey-text,2,73078,30
testing,running,6289.365000004182,tangram,isolated,F1.jpg,W1.jpg,survey-text,48,256734,19
testing,walking,3268.6200000025565,tangram,isolated,B1.jpg,P1.jpg,survey-text,49,260518,19
testing,sitting,3273.1499999936204,tangram,isolated,G1.jpg,M1.jpg,survey-text,50,264310,19
testing,service,10103.854999993928,tangram,far,K1.jpg,V1.jpg,survey-text,3,83714,30
testing,giving,2694.3499999906635,tangram,isolated,I1.jpg,J1.jpg,survey-text,51,267511,19
testing,running,2629.354999997304,tangram,isolated,A1.jpg,A2.jpg,survey-text,52,270655,19
testing,seal,6102.1099999779835,tangram,far,G1.jpg,N1.jpg,survey-text,4,90333,30
testing,leaning,2285.4800000059186,tangram,isolated,K1.jpg,T1.jpg,survey-text,53,273447,19
testing,standing,2365.6749999936437,tangram,isolated,H1.jpg,Y1.jpg,survey-text,54,276327,19
testing,fall,84268.35500000016,tangram,far,E1.jpg,C2.jpg,survey-text,14,244008,6
testing,reach,4554.2399999999325,tangram,far,I1.jpg,R1.jpg,survey-text,15,249071,6
testing,skipping,17009.000000020023,tangram,far,A1.jpg,D1.jpg,survey-text,5,107862,30
testing,sad,4214.204999999754,tangram,far,B1.jpg,O1.jpg,survey-text,16,253794,6
testing,NA,5052.864999976009,NA,NA,NA,NA,html-button-response,0,5056,1
testing,NA,1649.0900000208057,NA,NA,NA,NA,html-button-response,1,7723,1
testing,professor,9845.789999992121,tangram,far,H1.jpg,A2.jpg,survey-text,2,18079,1
testing,parishoner,10919.3699999596,tangram,far,G1.jpg,N1.jpg,survey-text,3,29513,1
testing,crouching,56208.010000002105,tangram,far,F1.jpg,C1.jpg,survey-text,6,164592,30
testing,flying,6786.884999950416,tangram,far,E1.jpg,C2.jpg,survey-text,7,171889,30
testing,sad,5140.755000000354,tangram,far,B1.jpg,O1.jpg,survey-text,8,177552,30
testing,waiter,12403.255000011995,tangram,far,I1.jpg,R1.jpg,survey-text,9,190481,30
testing,NA,4242.430000042077,NA,NA,NA,NA,html-button-response,10,195241,30
testing,seal,6341.13499999512,tangram,isolated,G1.jpg,M1.jpg,survey-text,11,202102,30
testing,NA,25167.639999999665,NA,NA,NA,NA,html-button-response,0,25171,3
testing,flying,6445.030000002589,tangram,isolated,E1.jpg,F1.jpg,survey-text,12,209056,30
testing,NA,5645.170000032522,NA,NA,NA,NA,html-button-response,1,31834,3
testing,service,7470.900000014808,tangram,isolated,H1.jpg,Y1.jpg,survey-text,13,217043,30
testing,skipping,6951.2349999859,tangram,isolated,A1.jpg,A2.jpg,survey-text,14,224510,30
testing,sad,4073.804999992717,tangram,isolated,B1.jpg,P1.jpg,survey-text,15,229101,30
testing,crouching,7450.024999969173,tangram,isolated,F1.jpg,W1.jpg,survey-text,16,237059,30
testing,waiter,7528.165000025183,tangram,isolated,I1.jpg,J1.jpg,survey-text,17,245120,30
testing,holding,42478.549999999814,tangram,close,I1.jpg,J1.jpg,survey-text,2,74820,3
testing,service,11421.154999989085,tangram,isolated,K1.jpg,T1.jpg,survey-text,18,257058,30
testing,NA,2439.8099999525584,NA,NA,NA,NA,html-button-response,19,260004,30
testing,bird,7742.194999998901,familiar,close,sparrow.jpg,eagle.jpg,survey-text,20,268269,30
testing,dog,8525.179999996908,familiar,close,germanshepherd.jpg,pug.jpg,survey-text,21,277320,30
testing,candy,7208.790000004228,familiar,close,mnms.jpg,gummybears.jpg,survey-text,22,285044,30
testing,shirt,5129.284999973606,familiar,close,poloshirt.jpg,hawaiishirt.jpg,survey-text,23,290690,30
testing,bear,6013.670000014827,familiar,close,grizzlybear.jpg,polarbear.jpg,survey-text,24,297213,30
testing,male,43129.76999999955,tangram,close,A1.jpg,A2.jpg,survey-text,3,118461,3
testing,table,6615.890000015497,familiar,close,diningtable.jpg,picnictable.jpg,survey-text,25,304346,30
testing,car,3135.1350000477396,familiar,close,sedan.jpg,sportscar.jpg,survey-text,26,308000,30
testing,goldfish,6230.454999953508,familiar,close,goldfish.jpg,swordfish.jpg,survey-text,27,314750,30
testing,bending,27738.270000030752,tangram,close,K1.jpg,T1.jpg,survey-text,4,146710,3
testing,upward,50788.33000001032,tangram,close,F1.jpg,W1.jpg,survey-text,5,198008,3
testing,NA,2879.475000081584,NA,NA,NA,NA,html-button-response,0,2905,2
testing,NA,2655.490000033751,NA,NA,NA,NA,html-button-response,1,6569,2
testing,NA,568066.8999999762,NA,NA,NA,NA,html-button-response,10,774396,20
testing,Table,7978.469999972731,familiar,isolated,diningtable.jpg,picnictable.jpg,survey-text,2,15063,2
testing,NA,163270.7249999512,NA,NA,NA,NA,html-button-response,28,478526,30
testing,Bear,4235.395000083372,familiar,isolated,grizzlybear.jpg,polarbear.jpg,survey-text,3,19811,2
testing,Shapes,8900.200000032783,tangram,isolated,I1.jpg,J1.jpg,survey-text,11,783823,20
testing,car,5954.739999957383,familiar,isolated,sedan.jpg,sportscar.jpg,survey-text,29,485007,30
testing,Dog,8193.28000000678,familiar,isolated,germanshepherd.jpg,pug.jpg,survey-text,4,28516,2
testing,bear,4257.259999983944,familiar,isolated,grizzlybear.jpg,polarbear.jpg,survey-text,30,489780,30
testing,sulking,6936.4000000059605,tangram,isolated,B1.jpg,P1.jpg,survey-text,12,791278,20
testing,candy,6120.360000000801,familiar,isolated,mnms.jpg,gummybears.jpg,survey-text,31,496435,30
testing,beg,5624.000000068918,tangram,isolated,K1.jpg,T1.jpg,survey-text,13,797435,20
testing,dog,4149.280000012368,familiar,isolated,germanshepherd.jpg,pug.jpg,survey-text,32,501101,30
testing,Fish,17041.005000006407,familiar,isolated,goldfish.jpg,swordfish.jpg,survey-text,5,46070,2
testing,shirt,4680.025000008754,familiar,isolated,poloshirt.jpg,hawaiishirt.jpg,survey-text,33,506303,30
testing,pointing,9742.000000085682,tangram,isolated,H1.jpg,Y1.jpg,survey-text,14,807709,20
testing,Sparrow,5144.815000006929,familiar,isolated,sparrow.jpg,eagle.jpg,survey-text,6,51726,2
testing,bird,4732.849999971222,familiar,isolated,sparrow.jpg,eagle.jpg,survey-text,34,511562,30
testing,dancing,8509.300000034273,tangram,isolated,F1.jpg,W1.jpg,survey-text,15,816748,20
testing,shirt,4524.140000110492,familiar,isolated,poloshirt.jpg,hawaiishirt.jpg,survey-text,7,56759,2
testing,table,7561.120000027586,familiar,isolated,diningtable.jpg,picnictable.jpg,survey-text,35,519641,30
testing,Gems,8606.954999966547,familiar,isolated,mnms.jpg,gummybears.jpg,survey-text,8,65877,2
testing,goldfish,5466.874999983702,familiar,isolated,goldfish.jpg,swordfish.jpg,survey-text,36,525629,30
testing,sitting,8913.799999980256,tangram,isolated,G1.jpg,M1.jpg,survey-text,16,826198,20
testing,NA,1966.4599999669008,NA,NA,NA,NA,html-button-response,37,528104,30
testing,Car,5798.165000043809,familiar,isolated,sedan.jpg,sportscar.jpg,survey-text,9,72186,2
testing,jumping,5925.400000065565,tangram,isolated,E1.jpg,F1.jpg,survey-text,17,832642,20
testing,NA,3730.229999870062,NA,NA,NA,NA,html-button-response,10,76423,2
testing,shirt,8793.9100000076,familiar,far,poloshirt.jpg,dress.jpg,survey-text,38,537415,30
testing,T shirt,5921.589999925345,familiar,close,poloshirt.jpg,hawaiishirt.jpg,survey-text,11,82858,2
testing,bird,6525.7199999759905,familiar,far,sparrow.jpg,squirrel.jpg,survey-text,39,544468,30
testing,Dog,3750.5499999970198,familiar,close,germanshepherd.jpg,pug.jpg,survey-text,12,87119,2
testing,car,4425.409999967087,familiar,far,sedan.jpg,firetruck.jpg,survey-text,40,549418,30
testing,Fish,3921.4250000659376,familiar,close,goldfish.jpg,swordfish.jpg,survey-text,13,91552,2
testing,skating,19736.499999882653,tangram,isolated,A1.jpg,A2.jpg,survey-text,18,852920,20
testing,table,4962.165000033565,familiar,far,diningtable.jpg,wardrobe.jpg,survey-text,41,554895,30
testing,goldfish,5594.554999959655,familiar,far,goldfish.jpg,iguana.jpg,survey-text,42,560998,30
testing,car,9633.380000013858,familiar,close,sedan.jpg,sportscar.jpg,survey-text,14,101696,2
testing,Bear,3726.32999997586,familiar,close,grizzlybear.jpg,polarbear.jpg,survey-text,15,105933,2
testing,bear,4128.364999953192,familiar,far,grizzlybear.jpg,lion.jpg,survey-text,43,565644,30
testing,dog,4611.100000038277,familiar,far,germanshepherd.jpg,cow.jpg,survey-text,44,570777,30
testing,Gems,5440.410000039265,familiar,close,mnms.jpg,gummybears.jpg,survey-text,16,111885,2
testing,candy,7182.159999967553,familiar,far,mnms.jpg,pretzels.jpg,survey-text,45,578485,30
testing,Sparrow,7055.6600000709295,familiar,close,sparrow.jpg,eagle.jpg,survey-text,17,119452,2
testing,NA,1312.9600000102073,NA,NA,NA,NA,html-button-response,46,580304,30
testing,NA,1771655.6150000542,NA,NA,NA,NA,html-button-response,0,1771732,25
testing,Table,3998.6149999313056,familiar,close,diningtable.jpg,picnictable.jpg,survey-text,18,123960,2
testing,NA,1512.2700000647455,NA,NA,NA,NA,html-button-response,19,125979,2
testing,NA,1900.0750000122935,NA,NA,NA,NA,html-button-response,1,1774645,25
testing,flying,6248.979999974836,tangram,close,E1.jpg,F1.jpg,survey-text,47,587076,30
testing,Eat,6751.455000136048,familiar,far,mnms.jpg,pretzels.jpg,survey-text,2,1781921,25
testing,service,12570.285000023432,tangram,close,H1.jpg,Y1.jpg,survey-text,48,600155,30
testing,Animal,11511.79499994032,familiar,far,goldfish.jpg,iguana.jpg,survey-text,3,1793946,25
testing,service,9080.125000036787,tangram,close,K1.jpg,T1.jpg,survey-text,49,609760,30
testing,Dress,3837.16500014998,familiar,far,poloshirt.jpg,dress.jpg,survey-text,4,1798292,25
testing,sad,3519.030000024941,tangram,close,B1.jpg,P1.jpg,survey-text,50,613805,30
testing,NA,4115.290000103414,NA,NA,NA,NA,html-button-response,0,4123,26
testing,Animal,7823.695000028238,familiar,far,germanshepherd.jpg,cow.jpg,survey-text,5,1806624,25
testing,waiter,5464.380000019446,tangram,close,I1.jpg,J1.jpg,survey-text,51,619802,30
testing,NA,1855.8000000193715,NA,NA,NA,NA,html-button-response,1,6993,26
testing,birds,5110.245000105351,familiar,far,sparrow.jpg,squirrel.jpg,survey-text,6,1812243,25
testing,seal,4561.52500002645,tangram,close,G1.jpg,M1.jpg,survey-text,52,624880,30
testing,MAN,8478.40499994345,tangram,isolated,E1.jpg,F1.jpg,survey-text,2,16253,26
testing,skipping,5967.9050000268035,tangram,close,A1.jpg,A2.jpg,survey-text,53,631361,30
testing,strong,610237.9450000008,familiar,isolated,germanshepherd.jpg,pug.jpg,survey-text,49,1822049,8
testing,BIRD,4332.515000132844,tangram,isolated,F1.jpg,W1.jpg,survey-text,3,21106,26
testing,trasporter,11013.419999973848,familiar,far,sedan.jpg,firetruck.jpg,survey-text,7,1823781,25
testing,blue,2947.6100000028964,familiar,isolated,poloshirt.jpg,hawaiishirt.jpg,survey-text,50,1825500,8
testing,crouching,7055.654999974649,tangram,close,F1.jpg,W1.jpg,survey-text,54,638930,30
testing,DOG,4784.0350000187755,tangram,isolated,K1.jpg,T1.jpg,survey-text,4,26399,26
testing,bear,3767.9599999974016,familiar,isolated,grizzlybear.jpg,polarbear.jpg,survey-text,51,1829772,8
testing,Tables,5600.875000003725,familiar,far,diningtable.jpg,wardrobe.jpg,survey-text,8,1829889,25
testing,WOMAN,5045.9100001025945,tangram,isolated,I1.jpg,J1.jpg,survey-text,5,31956,26
testing,fish,3816.2250000021886,familiar,isolated,goldfish.jpg,swordfish.jpg,survey-text,52,1834092,8
testing,Animal,5485.694999806583,familiar,far,grizzlybear.jpg,lion.jpg,survey-text,9,1835887,25
testing,NA,1384.8749999888241,NA,NA,NA,NA,html-button-response,10,1837787,25
testing,table,4337.050000002142,familiar,isolated,diningtable.jpg,picnictable.jpg,survey-text,53,1838932,8
testing,SIT,5829.814999829978,tangram,isolated,G1.jpg,M1.jpg,survey-text,6,38297,26
testing,car,2952.4200000013225,familiar,isolated,sedan.jpg,sportscar.jpg,survey-text,54,1842388,8
testing,WALK,3856.9499999284744,tangram,isolated,B1.jpg,P1.jpg,survey-text,7,42665,26
testing,Art,8057.925000088289,tangram,close,E1.jpg,F1.jpg,survey-text,11,1846358,25
testing,NA,1647154.7750000027,NA,NA,NA,NA,html-button-response,0,1647157,27
testing,NA,1842.339999973774,NA,NA,NA,NA,html-button-response,1,1650006,27
testing,seal,3867.7649999735877,tangram,close,G1.jpg,M1.jpg,survey-text,2,1654401,27
testing,Man,14355.264999903738,tangram,close,K1.jpg,T1.jpg,survey-text,12,1861221,25
testing,priest,2969.145000039134,tangram,close,H1.jpg,Y1.jpg,survey-text,3,1657874,27
testing,runner,2509.790000040084,tangram,close,A1.jpg,A2.jpg,survey-text,4,1660907,27
testing,skyward,6487.150000000838,tangram,close,F1.jpg,W1.jpg,survey-text,5,1667897,27
testing,walk,10941.264999797568,tangram,close,A1.jpg,A2.jpg,survey-text,13,1872690,25
testing,jumping,2097.8050000267103,tangram,close,E1.jpg,F1.jpg,survey-text,6,1670501,27
testing,sad,2197.534999984782,tangram,close,B1.jpg,P1.jpg,survey-text,7,1673213,27
testing,dance,8638.984999852255,tangram,close,F1.jpg,W1.jpg,survey-text,14,1881854,25
testing,praying,4334.72000004258,tangram,close,K1.jpg,T1.jpg,survey-text,8,1678053,27
testing,offering,3085.0349999964237,tangram,close,I1.jpg,J1.jpg,survey-text,9,1681644,27
testing,NA,2167.9449999937788,NA,NA,NA,NA,html-button-response,10,1684322,27
testing,goldfish,2139.770000008866,familiar,close,goldfish.jpg,swordfish.jpg,survey-text,11,1686972,27
testing,standing man,8723.165000090376,tangram,close,H1.jpg,Y1.jpg,survey-text,15,1891442,25
testing,bear,1759.9250000203028,familiar,close,grizzlybear.jpg,polarbear.jpg,survey-text,12,1689243,27
testing,sad,5112.44500009343,tangram,close,B1.jpg,P1.jpg,survey-text,16,1897062,25
testing,dog,3443.7549999565817,familiar,close,germanshepherd.jpg,pug.jpg,survey-text,13,1693193,27
testing,candy,2518.4149999986403,familiar,close,mnms.jpg,gummybears.jpg,survey-text,14,1696220,27
testing,solid,4955.799999996088,familiar,close,poloshirt.jpg,hawaiishirt.jpg,survey-text,15,1701683,27
testing,STAND,63627.444999990985,tangram,isolated,H1.jpg,Y1.jpg,survey-text,8,106815,26
testing,beggar,12242.860000114888,tangram,close,I1.jpg,J1.jpg,survey-text,17,1909812,25
testing,dining,5555.289999989327,familiar,close,diningtable.jpg,picnictable.jpg,survey-text,16,1707747,27
testing,RUN,4936.184999998659,tangram,isolated,A1.jpg,A2.jpg,survey-text,9,112260,26
testing,honda,2516.62499998929,familiar,close,sedan.jpg,sportscar.jpg,survey-text,17,1710771,27
testing,sparrow,3709.3600000371225,familiar,close,sparrow.jpg,eagle.jpg,survey-text,18,1714989,27
testing,NA,6828.20999994874,NA,NA,NA,NA,html-button-response,10,119595,26
testing,NA,2315.935000020545,NA,NA,NA,NA,html-button-response,19,1717824,27
testing,Sad,12243.514999980107,tangram,close,G1.jpg,M1.jpg,survey-text,18,1922566,25
testing,NA,3356.6349998582155,NA,NA,NA,NA,html-button-response,19,1926429,25
testing,balance,5830.264999996871,tangram,far,A1.jpg,D1.jpg,survey-text,20,1724171,27
testing,STAND,8701.830000150949,tangram,close,H1.jpg,Y1.jpg,survey-text,11,128812,26
testing,sad,2488.725000002887,tangram,far,B1.jpg,O1.jpg,survey-text,21,1727162,27
testing,running,5897.050000028685,tangram,far,G1.jpg,N1.jpg,survey-text,20,1932838,25
testing,offering,3480.264999961946,tangram,far,I1.jpg,R1.jpg,survey-text,22,1731152,27
testing,priest,3194.5700000505894,tangram,far,H1.jpg,A2.jpg,survey-text,23,1734863,27
testing,happy,8277.09999983199,tangram,far,E1.jpg,C2.jpg,survey-text,21,1941626,25
testing,praying,3035.9150000149384,tangram,far,K1.jpg,V1.jpg,survey-text,24,1738413,27
testing,RUN,14268.904999829829,tangram,close,F1.jpg,W1.jpg,survey-text,12,143598,26
testing,sad,3419.3649999797344,tangram,far,B1.jpg,O1.jpg,survey-text,22,1945559,25
testing,skyward,2779.6199999866076,tangram,far,F1.jpg,C1.jpg,survey-text,25,1741706,27
testing,jumping,2399.650000035763,tangram,far,E1.jpg,C2.jpg,survey-text,26,1744616,27
testing,SIT,4394.410000182688,tangram,close,G1.jpg,M1.jpg,survey-text,13,148501,26
testing,kneeling,3410.759999998845,tangram,far,G1.jpg,N1.jpg,survey-text,27,1748541,27
testing,walk,8538.605000125244,tangram,far,A1.jpg,D1.jpg,survey-text,23,1954605,25
testing,NA,1854.189999983646,NA,NA,NA,NA,html-button-response,28,1750900,27
testing,DOG,8047.895000083372,tangram,close,K1.jpg,T1.jpg,survey-text,14,158332,26
testing,praying,4530.979999981355,tangram,isolated,K1.jpg,T1.jpg,survey-text,29,1755940,27
testing,priest,2012.3149999999441,tangram,isolated,H1.jpg,Y1.jpg,survey-text,30,1758470,27
testing,WALK,4484.399999957532,tangram,close,B1.jpg,P1.jpg,survey-text,15,163342,26
testing,WALK,6253.34500009194,tangram,close,A1.jpg,A2.jpg,survey-text,16,170120,26
testing,take anyone,17910.57000006549,tangram,far,H1.jpg,A2.jpg,survey-text,24,1973033,25
testing,WOMEN,5817.890000063926,tangram,close,I1.jpg,J1.jpg,survey-text,17,176464,26
testing,run,5122.995000099763,tangram,far,K1.jpg,V1.jpg,survey-text,25,1978667,25
testing,FLY,6084.73000000231,tangram,close,E1.jpg,F1.jpg,survey-text,18,184224,26
testing,NA,4155.0200001802295,NA,NA,NA,NA,html-button-response,19,188900,26
testing,please,11427.625000011176,tangram,far,F1.jpg,C1.jpg,survey-text,26,1991488,25
testing,DOG,5994.674999965355,familiar,far,germanshepherd.jpg,cow.jpg,survey-text,20,195407,26
testing,run,5178.895000135526,tangram,far,I1.jpg,R1.jpg,survey-text,27,1997176,25
testing,NA,1777.0550001878291,NA,NA,NA,NA,html-button-response,28,1999464,25
testing,TABLE,4986.255000112578,familiar,far,diningtable.jpg,wardrobe.jpg,survey-text,21,200919,26
testing,car,4080.6050000246614,familiar,isolated,sedan.jpg,sportscar.jpg,survey-text,29,2004063,25
testing,BIRD,3872.495000017807,familiar,far,sparrow.jpg,squirrel.jpg,survey-text,22,205323,26
testing,dog,3845.3899999149144,familiar,isolated,germanshepherd.jpg,pug.jpg,survey-text,30,2008415,25
testing,SHIRT,3877.1750000305474,familiar,far,poloshirt.jpg,dress.jpg,survey-text,23,209726,26
testing,table,3965.139999985695,familiar,isolated,diningtable.jpg,picnictable.jpg,survey-text,31,2012889,25
testing,CAR,3232.8600001055747,familiar,far,sedan.jpg,firetruck.jpg,survey-text,24,213480,26
testing,gems,5550.93999998644,familiar,isolated,mnms.jpg,gummybears.jpg,survey-text,32,2018956,25
testing,skyward,59224.010000005364,tangram,isolated,F1.jpg,W1.jpg,survey-text,31,1818200,27
testing,balance,3862.4600000330247,tangram,isolated,A1.jpg,A2.jpg,survey-text,32,1822578,27
testing,t shirt,7639.309999998659,familiar,isolated,poloshirt.jpg,hawaiishirt.jpg,survey-text,33,2027108,25
testing,BEAR,11770.309999817982,familiar,far,grizzlybear.jpg,lion.jpg,survey-text,25,225777,26
testing,GEMS,5963.35000009276,familiar,far,mnms.jpg,pretzels.jpg,survey-text,26,232251,26
testing,Animal,6672.69999999553,familiar,isolated,grizzlybear.jpg,polarbear.jpg,survey-text,34,2034296,25
testing,FISH,4409.979999996722,familiar,far,goldfish.jpg,iguana.jpg,survey-text,27,237175,26
testing,bird,3973.5850000288337,familiar,isolated,sparrow.jpg,eagle.jpg,survey-text,35,2038776,25
testing,NA,1211.8949999567121,NA,NA,NA,NA,html-button-response,28,238904,26
testing,offering,15542.669999995269,tangram,isolated,I1.jpg,J1.jpg,survey-text,33,1838635,27
testing,fish,3872.019999893382,familiar,isolated,goldfish.jpg,swordfish.jpg,survey-text,36,2043160,25
testing,CAR,3463.6900001205504,familiar,close,sedan.jpg,sportscar.jpg,survey-text,29,243137,26
testing,NA,2053.6299999803305,NA,NA,NA,NA,html-button-response,37,2045718,25
testing,depressed,3155.670000007376,tangram,isolated,B1.jpg,P1.jpg,survey-text,34,1842305,27
testing,DOG,3773.689999943599,familiar,close,germanshepherd.jpg,pug.jpg,survey-text,30,247434,26
testing,Animal,6717.1549999620765,familiar,close,grizzlybear.jpg,polarbear.jpg,survey-text,38,2052963,25
testing,table,4380.099999951199,familiar,close,diningtable.jpg,picnictable.jpg,survey-text,39,2057852,25
testing,dog,4749.454999808222,familiar,close,germanshepherd.jpg,pug.jpg,survey-text,40,2063112,25
testing,BEAR,13881.009999895468,familiar,close,grizzlybear.jpg,polarbear.jpg,survey-text,31,261943,26
testing,fish,4161.644999869168,familiar,close,goldfish.jpg,swordfish.jpg,survey-text,41,2067796,25
testing,FISH,4638.980000047013,familiar,close,goldfish.jpg,swordfish.jpg,survey-text,32,267101,26
testing,GEMS,4364.319999935105,familiar,close,mnms.jpg,gummybears.jpg,survey-text,33,271983,26
testing,gems,5309.8100000061095,familiar,close,mnms.jpg,gummybears.jpg,survey-text,42,2073614,25
testing,bird,3870.2549999579787,familiar,close,sparrow.jpg,eagle.jpg,survey-text,43,2078002,25
testing,TABLE,8424.024999840185,familiar,close,diningtable.jpg,picnictable.jpg,survey-text,34,280918,26
testing,BIRD,4374.264999991283,familiar,close,sparrow.jpg,eagle.jpg,survey-text,35,285812,26
testing,t shirt,12662.800000049174,familiar,close,poloshirt.jpg,hawaiishirt.jpg,survey-text,44,2091173,25
testing,BLUE SHIRT,5901.134999934584,familiar,close,poloshirt.jpg,hawaiishirt.jpg,survey-text,36,292320,26
testing,car,3363.63000003621,familiar,close,sedan.jpg,sportscar.jpg,survey-text,45,2095060,25
testing,NA,1227.754999883473,NA,NA,NA,NA,html-button-response,37,294057,26
testing,NA,1345.8950000349432,NA,NA,NA,NA,html-button-response,46,2096938,25
testing,enjoy,8107.27999988012,tangram,isolated,E1.jpg,F1.jpg,survey-text,47,2105560,25
testing,sad,4265.340000158176,tangram,isolated,G1.jpg,M1.jpg,survey-text,48,2110338,25
testing,TABLE,15100.550000090152,familiar,isolated,diningtable.jpg,picnictable.jpg,survey-text,38,309724,26
testing,happy,5144.554999889806,tangram,isolated,F1.jpg,W1.jpg,survey-text,49,2115989,25
testing,sad,2927.76000010781,tangram,isolated,B1.jpg,P1.jpg,survey-text,50,2119428,25
testing,walk,4897.470000199974,tangram,isolated,A1.jpg,A2.jpg,survey-text,51,2124833,25
testing,FISH,14461.620000191033,familiar,isolated,goldfish.jpg,swordfish.jpg,survey-text,39,324695,26
testing,Car,5869.424999924377,familiar,isolated,sedan.jpg,sportscar.jpg,survey-text,40,331076,26
testing,DOG,4677.135000005364,familiar,isolated,germanshepherd.jpg,pug.jpg,survey-text,41,336951,26
testing,take care,13025.059999898076,tangram,isolated,H1.jpg,Y1.jpg,survey-text,52,2138383,25
testing,GEMS,3422.465000068769,familiar,isolated,mnms.jpg,gummybears.jpg,survey-text,42,340886,26
testing,please,7511.214999947697,tangram,isolated,K1.jpg,T1.jpg,survey-text,53,2146612,25
testing,BEAR,5365.4149998910725,familiar,isolated,grizzlybear.jpg,polarbear.jpg,survey-text,43,346777,26
testing,please,3880.8500000741333,tangram,isolated,I1.jpg,J1.jpg,survey-text,54,2151132,25
testing,BIRD,7217.389999888837,familiar,isolated,sparrow.jpg,eagle.jpg,survey-text,44,354506,26
testing,SHIRT,3470.225000055507,familiar,isolated,poloshirt.jpg,hawaiishirt.jpg,survey-text,45,358486,26
testing,jumping,113055.09999999776,tangram,isolated,E1.jpg,F1.jpg,survey-text,35,1955873,27
testing,NA,1548.8700000569224,NA,NA,NA,NA,html-button-response,46,360548,26
testing,praying,2716.3200000068173,tangram,isolated,G1.jpg,M1.jpg,survey-text,36,1959098,27
testing,NA,1157.210000033956,NA,NA,NA,NA,html-button-response,37,1960764,27
testing,sparrow,2033.6850000312552,familiar,isolated,sparrow.jpg,eagle.jpg,survey-text,38,1963316,27
testing,WOMAN,5985.2549999486655,tangram,far,I1.jpg,R1.jpg,survey-text,47,367048,26
testing,car,2535.334999964107,familiar,isolated,sedan.jpg,sportscar.jpg,survey-text,39,1966358,27
testing,bear,1570.9799999604002,familiar,isolated,grizzlybear.jpg,polarbear.jpg,survey-text,40,1968436,27
testing,DOG,4020.3099998179823,tangram,far,K1.jpg,V1.jpg,survey-text,48,371585,26
testing,shirt,2037.590000021737,familiar,isolated,poloshirt.jpg,hawaiishirt.jpg,survey-text,41,1970982,27
testing,WALK,3428.279999876395,tangram,far,B1.jpg,O1.jpg,survey-text,49,375534,26
testing,SIT,3462.1950001455843,tangram,far,G1.jpg,N1.jpg,survey-text,50,379511,26
testing,STAND,4794.029999990016,tangram,far,H1.jpg,A2.jpg,survey-text,51,385012,26
testing,RUN,3767.6200000569224,tangram,far,A1.jpg,D1.jpg,survey-text,52,389308,26
testing,FLY,4354.934999952093,tangram,far,E1.jpg,C2.jpg,survey-text,53,394214,26
testing,dog,20402.4250000366,familiar,isolated,germanshepherd.jpg,pug.jpg,survey-text,42,1991889,27
testing,table,2017.4499999848194,familiar,isolated,diningtable.jpg,picnictable.jpg,survey-text,43,1994421,27
testing,RUN,5034.1199999675155,tangram,far,F1.jpg,C1.jpg,survey-text,54,399763,26
testing,candy,2229.555000027176,familiar,isolated,mnms.jpg,gummybears.jpg,survey-text,44,1997168,27
testing,goldfish,2020.3550000442192,familiar,isolated,goldfish.jpg,swordfish.jpg,survey-text,45,1999703,27
testing,NA,815.8050000201911,NA,NA,NA,NA,html-button-response,46,2001026,27
testing,table,2031.0199999948964,familiar,far,diningtable.jpg,wardrobe.jpg,survey-text,47,2003562,27
testing,bear,1410.860000003595,familiar,far,grizzlybear.jpg,lion.jpg,survey-text,48,2005483,27
testing,shirt,1819.7199999704026,familiar,far,poloshirt.jpg,dress.jpg,survey-text,49,2007807,27
testing,car,1392.4399999668822,familiar,far,sedan.jpg,firetruck.jpg,survey-text,50,2009711,27
testing,candy,1613.1400000303984,familiar,far,mnms.jpg,pretzels.jpg,survey-text,51,2011831,27
testing,dog,2529.1549999965355,familiar,far,germanshepherd.jpg,cow.jpg,survey-text,52,2014876,27
testing,fish,1448.2350000180304,familiar,far,goldfish.jpg,iguana.jpg,survey-text,53,2016829,27
testing,bird,1939.2549999756739,familiar,far,sparrow.jpg,squirrel.jpg,survey-text,54,2019283,27
testing,NA,49620.99999998463,NA,NA,NA,NA,html-button-response,0,49630,7
testing,NA,7846.000000019558,NA,NA,NA,NA,html-button-response,1,58485,7
testing,bear,10493.000000016764,familiar,isolated,grizzlybear.jpg,polarbear.jpg,survey-text,2,69498,7
testing,fish,8543.000000005122,familiar,isolated,goldfish.jpg,swordfish.jpg,survey-text,3,78557,7
testing,sparrow,10187.999999965541,familiar,isolated,sparrow.jpg,eagle.jpg,survey-text,4,89254,7
testing,table,11529.00000003865,familiar,isolated,diningtable.jpg,picnictable.jpg,survey-text,5,101294,7
testing,car,6056.0000000405125,familiar,isolated,sedan.jpg,sportscar.jpg,survey-text,6,107866,7
testing,shirt,6128.000000026077,familiar,isolated,poloshirt.jpg,hawaiishirt.jpg,survey-text,7,114506,7
testing,dog,5983.99999999674,familiar,isolated,germanshepherd.jpg,pug.jpg,survey-text,8,121002,7
testing,chocolates,27276.000000012573,familiar,isolated,mnms.jpg,gummybears.jpg,survey-text,9,148791,7
testing,NA,6353.999999992084,NA,NA,NA,NA,html-button-response,10,155655,7
testing,shapes,13214.999999967404,tangram,close,G1.jpg,M1.jpg,survey-text,11,169387,7
testing,dog,17706.999999994878,tangram,close,K1.jpg,T1.jpg,survey-text,12,187609,7
testing,human,19027.000000001863,tangram,close,A1.jpg,A2.jpg,survey-text,13,207150,7
testing,NA,84995.9150000359,NA,NA,NA,NA,html-button-response,0,84999,12
testing,fish,29872.00000003213,tangram,close,I1.jpg,J1.jpg,survey-text,14,237540,7
testing,NA,2520.3549999860115,NA,NA,NA,NA,html-button-response,1,88523,12
testing,NA,13680.325000000266,NA,NA,NA,NA,html-button-response,0,13684,16
testing,BEAR,3332.720000005793,familiar,isolated,grizzlybear.jpg,polarbear.jpg,survey-text,2,92362,12
testing,NA,1824.4500000000698,NA,NA,NA,NA,html-button-response,1,16512,16
testing,house,10273.999999975786,tangram,close,H1.jpg,Y1.jpg,survey-text,15,248324,7
testing,goldfish,4228.854999993928,familiar,isolated,goldfish.jpg,swordfish.jpg,survey-text,3,97095,12
testing,shirt,4694.539999999961,familiar,isolated,poloshirt.jpg,hawaiishirt.jpg,survey-text,2,21713,16
testing,dog,3108.7100000004284,familiar,isolated,germanshepherd.jpg,pug.jpg,survey-text,4,100708,12
testing,bear,3494.485000000168,familiar,isolated,grizzlybear.jpg,polarbear.jpg,survey-text,3,25713,16
testing,bird,2763.9949999866076,familiar,isolated,sparrow.jpg,eagle.jpg,survey-text,5,103983,12
testing,human,9458.000000042375,tangram,close,B1.jpg,P1.jpg,survey-text,16,258312,7
testing,dog,3256.1649999997826,familiar,isolated,germanshepherd.jpg,pug.jpg,survey-text,4,29473,16
testing,table,2846.109999984037,familiar,isolated,diningtable.jpg,picnictable.jpg,survey-text,6,107332,12
testing,car,2542.654999999744,familiar,isolated,sedan.jpg,sportscar.jpg,survey-text,5,32521,16
testing,shirt,3182.9949999810196,familiar,isolated,poloshirt.jpg,hawaiishirt.jpg,survey-text,7,111020,12
testing,car,1621.3100000168197,familiar,isolated,sedan.jpg,sportscar.jpg,survey-text,8,113145,12
testing,table,3385.0000000002183,familiar,isolated,diningtable.jpg,picnictable.jpg,survey-text,6,36417,16
testing,bat,9089.999999967404,tangram,close,E1.jpg,F1.jpg,survey-text,17,267917,7
testing,candy,3346.625000005588,familiar,isolated,mnms.jpg,gummybears.jpg,survey-text,9,116994,12
testing,fish,3207.1849999997576,familiar,isolated,goldfish.jpg,swordfish.jpg,survey-text,7,40128,16
testing,NA,2321.765000000596,NA,NA,NA,NA,html-button-response,10,119818,12
testing,candy,3794.764999999643,familiar,isolated,mnms.jpg,gummybears.jpg,survey-text,8,44432,16
testing,waiter,3750.369999965187,tangram,isolated,I1.jpg,J1.jpg,survey-text,11,124071,12
testing,bird,3457.3200000450015,tangram,isolated,F1.jpg,W1.jpg,survey-text,12,128032,12
testing,bird,5784.07000000016,familiar,isolated,sparrow.jpg,eagle.jpg,survey-text,9,50721,16
testing,runner,2434.095000033267,tangram,isolated,A1.jpg,A2.jpg,survey-text,13,130970,12
testing,NA,3343.8399999999965,NA,NA,NA,NA,html-button-response,10,54568,16
testing,shark,17596.99999995064,tangram,close,F1.jpg,W1.jpg,survey-text,18,286027,7
testing,sitting,3896.034999983385,tangram,isolated,G1.jpg,M1.jpg,survey-text,14,135369,12
testing,jumping,5246.405000041705,tangram,isolated,E1.jpg,F1.jpg,survey-text,15,141119,12
testing,NA,7113.000000012107,NA,NA,NA,NA,html-button-response,19,293650,7
testing,bird,8950.084999999948,familiar,far,sparrow.jpg,squirrel.jpg,survey-text,11,64025,16
testing,sulking,2508.704999985639,tangram,isolated,B1.jpg,P1.jpg,survey-text,16,144132,12
testing,dog,3678.945000000109,familiar,far,germanshepherd.jpg,cow.jpg,survey-text,12,68209,16
testing,shirt,2880.2000000000553,familiar,far,poloshirt.jpg,dress.jpg,survey-text,13,71594,16
testing,bending,5197.370000008959,tangram,isolated,K1.jpg,T1.jpg,survey-text,17,149832,12
testing,dog,9364.000000001397,familiar,far,germanshepherd.jpg,cow.jpg,survey-text,20,303530,7
testing,fish,5149.5899999999965,familiar,far,goldfish.jpg,iguana.jpg,survey-text,14,77249,16
testing,requesting,5158.215000003111,tangram,isolated,H1.jpg,Y1.jpg,survey-text,18,155494,12
testing,NA,2686.5899999975227,NA,NA,NA,NA,html-button-response,19,158682,12
testing,sparrow,7455.000000016298,familiar,far,sparrow.jpg,squirrel.jpg,survey-text,21,311497,7
testing,candy,4159.3749999997235,familiar,far,mnms.jpg,pretzels.jpg,survey-text,15,81912,16
testing,bear,4208.630000000092,familiar,far,grizzlybear.jpg,lion.jpg,survey-text,16,86626,16
testing,fish,6263.999999966472,familiar,far,goldfish.jpg,iguana.jpg,survey-text,22,318271,7
testing,begging,8394.899999955669,tangram,far,I1.jpg,R1.jpg,survey-text,20,167582,12
testing,car,7621.465000000171,familiar,far,sedan.jpg,firetruck.jpg,survey-text,17,94753,16
testing,running,5046.945000009146,tangram,far,A1.jpg,D1.jpg,survey-text,21,173133,12
testing,table,7676.999999966938,familiar,far,diningtable.jpg,wardrobe.jpg,survey-text,23,326477,7
testing,table,4531.985000000073,familiar,far,diningtable.jpg,wardrobe.jpg,survey-text,18,99793,16
testing,sulking,5644.994999980554,tangram,far,B1.jpg,O1.jpg,survey-text,22,179282,12
testing,NA,1775.819999999847,NA,NA,NA,NA,html-button-response,19,102071,16
testing,bear,7673.000000009779,familiar,far,grizzlybear.jpg,lion.jpg,survey-text,24,334669,7
testing,jumping,3809.175000002142,tangram,far,E1.jpg,C2.jpg,survey-text,23,183594,12
testing,lunging,10608.784999989439,tangram,far,F1.jpg,C1.jpg,survey-text,24,194707,12
testing,kneeling,5671.124999993481,tangram,far,G1.jpg,N1.jpg,survey-text,25,200882,12
testing,sit,21726.09999999986,tangram,far,G1.jpg,N1.jpg,survey-text,20,124305,16
testing,begging,3544.690000009723,tangram,far,H1.jpg,A2.jpg,survey-text,26,204932,12
testing,bending,5846.285000036005,tangram,far,K1.jpg,V1.jpg,survey-text,27,211282,12
testing,bend,8799.539999999979,tangram,far,K1.jpg,V1.jpg,survey-text,21,133609,16
testing,NA,3541.3299999781884,NA,NA,NA,NA,html-button-response,28,215325,12
testing,walk,5375.079999999813,tangram,far,B1.jpg,O1.jpg,survey-text,22,139489,16
testing,chocolate,4053.6149999825284,familiar,close,mnms.jpg,gummybears.jpg,survey-text,29,219882,12
testing,celebrate,8508.945000000036,tangram,far,E1.jpg,C2.jpg,survey-text,23,148505,16
testing,frolick,15438.405000000348,tangram,far,A1.jpg,D1.jpg,survey-text,24,164448,16
testing,monotone,26371.165000018664,familiar,close,poloshirt.jpg,hawaiishirt.jpg,survey-text,30,246757,12
testing,NA,20944.900000002235,NA,NA,NA,NA,html-button-response,0,20953,15
testing,splits,12494.209999999817,tangram,far,F1.jpg,C1.jpg,survey-text,25,177449,16
testing,NA,1557.7250000205822,NA,NA,NA,NA,html-button-response,1,23522,15
testing,desk,8995.46000000555,familiar,close,diningtable.jpg,picnictable.jpg,survey-text,31,256257,12
testing,pray,6335.340000000113,tangram,far,H1.jpg,A2.jpg,survey-text,26,184289,16
testing,chair,10445.019999984652,familiar,close,diningtable.jpg,picnictable.jpg,survey-text,2,34483,15
testing,serve,4990.405000000028,tangram,far,I1.jpg,R1.jpg,survey-text,27,189784,16
testing,NA,954.5750000001863,NA,NA,NA,NA,html-button-response,28,191241,16
testing,bird,5985.969999979716,familiar,close,sparrow.jpg,eagle.jpg,survey-text,3,40983,15
testing,celebrate,7681.614999999962,tangram,close,E1.jpg,F1.jpg,survey-text,29,199433,16
testing,chocolates,94411.00000002189,familiar,far,mnms.jpg,pretzels.jpg,survey-text,25,429596,7
testing,bend,4920.544999999955,tangram,close,K1.jpg,T1.jpg,survey-text,30,204864,16
testing,blackbear,26758.87000001967,familiar,close,grizzlybear.jpg,polarbear.jpg,survey-text,32,283519,12
testing,shirt,8913.999999989755,familiar,far,poloshirt.jpg,dress.jpg,survey-text,26,439033,7
testing,dog,14269.774999993388,familiar,close,grizzlybear.jpg,polarbear.jpg,survey-text,4,55767,15
testing,walk,7416.140000000276,tangram,close,B1.jpg,P1.jpg,survey-text,31,212785,16
testing,car,6027.999999991152,familiar,far,sedan.jpg,firetruck.jpg,survey-text,27,445572,7
testing,splits,3823.5400000003283,tangram,close,F1.jpg,W1.jpg,survey-text,32,217114,16
testing,dog,6067.689999996219,familiar,close,germanshepherd.jpg,pug.jpg,survey-text,5,62345,15
testing,sit,3134.049999999668,tangram,close,G1.jpg,M1.jpg,survey-text,33,220753,16
testing,NA,4475.000000034925,NA,NA,NA,NA,html-button-response,28,450554,7
testing,shirt,5366.414999996778,familiar,close,poloshirt.jpg,hawaiishirt.jpg,survey-text,6,68223,15
testing,hunter,18233.464999997523,familiar,close,germanshepherd.jpg,pug.jpg,survey-text,33,302257,12
testing,frolick,4175.069999999774,tangram,close,A1.jpg,A2.jpg,survey-text,34,225433,16
testing,goldfish,3708.8849999709055,familiar,close,goldfish.jpg,swordfish.jpg,survey-text,34,306469,12
testing,fish,10332.605000003241,familiar,close,goldfish.jpg,swordfish.jpg,survey-text,7,79064,15
testing,sparrow,6071.839999989606,familiar,close,sparrow.jpg,eagle.jpg,survey-text,35,313044,12
testing,human,14010.000000009313,tangram,isolated,B1.jpg,P1.jpg,survey-text,29,465082,7
testing,pray,10556.275000000373,tangram,close,H1.jpg,Y1.jpg,survey-text,35,236496,16
testing,car,4869.264999986626,familiar,close,sedan.jpg,sportscar.jpg,survey-text,8,84443,15
testing,serve,2912.6649999998335,tangram,close,I1.jpg,J1.jpg,survey-text,36,239914,16
testing,NA,886.9400000003225,NA,NA,NA,NA,html-button-response,37,241303,16
testing,sedan,5833.700000017416,familiar,close,sedan.jpg,sportscar.jpg,survey-text,36,319382,12
testing,dog,8505.000000004657,tangram,isolated,K1.jpg,T1.jpg,survey-text,30,474099,7
testing,NA,2374.0649999817833,NA,NA,NA,NA,html-button-response,37,322257,12
testing,cheering,5533.675000013318,tangram,close,E1.jpg,F1.jpg,survey-text,38,328294,12
testing,candy,11030.019999947399,familiar,close,mnms.jpg,gummybears.jpg,survey-text,9,95986,15
testing,shark,6504.000000015367,tangram,isolated,F1.jpg,W1.jpg,survey-text,31,481112,7
testing,M&M,9815.704999999958,familiar,close,mnms.jpg,gummybears.jpg,survey-text,38,251625,16
testing,NA,1809.5599999651313,NA,NA,NA,NA,html-button-response,10,98314,15
testing,squatting,9120.705000008456,tangram,close,G1.jpg,M1.jpg,survey-text,39,337919,12
testing,bird,7357.755000004545,familiar,isolated,sparrow.jpg,eagle.jpg,survey-text,11,106184,15
testing,wren,9294.810000000347,familiar,close,sparrow.jpg,eagle.jpg,survey-text,39,261425,16
testing,fish,9597.000000008848,tangram,isolated,I1.jpg,J1.jpg,survey-text,32,491543,7
testing,sulking,3246.050000016112,tangram,close,B1.jpg,P1.jpg,survey-text,40,341669,12
testing,shepherd,4101.485000000161,familiar,close,germanshepherd.jpg,pug.jpg,survey-text,40,266033,16
testing,bending,3034.4399999594316,tangram,close,K1.jpg,T1.jpg,survey-text,41,345207,12
testing,shirt,6708.515000005718,familiar,isolated,poloshirt.jpg,hawaiishirt.jpg,survey-text,12,113405,15
testing,human,8386.999999987893,tangram,isolated,A1.jpg,A2.jpg,survey-text,33,500446,7
testing,goldfish,4932.27999999997,familiar,close,goldfish.jpg,swordfish.jpg,survey-text,41,271473,16
testing,dog,6808.399999979883,familiar,isolated,germanshepherd.jpg,pug.jpg,survey-text,13,120726,15
testing,waiter,7746.214999991935,tangram,close,I1.jpg,J1.jpg,survey-text,42,353456,12
testing,grizzly,4520.164999999921,familiar,close,grizzlybear.jpg,polarbear.jpg,survey-text,42,276497,16
testing,house,8288.000000000466,tangram,isolated,H1.jpg,Y1.jpg,survey-text,34,509246,7
testing,cheering,4034.3850000062957,tangram,close,F1.jpg,W1.jpg,survey-text,43,357994,12
testing,begging,3695.8899999735877,tangram,close,H1.jpg,Y1.jpg,survey-text,44,362194,12
testing,table,10351.000000000116,familiar,close,diningtable.jpg,picnictable.jpg,survey-text,43,287353,16
testing,fish,13680.850000004284,familiar,isolated,goldfish.jpg,swordfish.jpg,survey-text,14,134912,15
testing,sprinting,5983.185000019148,tangram,close,A1.jpg,A2.jpg,survey-text,45,368681,12
testing,NA,1819.690000033006,NA,NA,NA,NA,html-button-response,46,371002,12
testing,deer,9190.579999994952,familiar,isolated,grizzlybear.jpg,polarbear.jpg,survey-text,15,144612,15
testing,chair,6142.6099999807775,familiar,isolated,diningtable.jpg,picnictable.jpg,survey-text,16,151263,15
testing,car,5006.614999962039,familiar,isolated,sedan.jpg,sportscar.jpg,survey-text,17,156777,15
testing,dolphin,32684.99999999767,tangram,isolated,G1.jpg,M1.jpg,survey-text,35,542442,7
testing,candy,5190.075000049546,familiar,isolated,mnms.jpg,gummybears.jpg,survey-text,18,162485,15
testing,bat,5965.000000025611,tangram,isolated,E1.jpg,F1.jpg,survey-text,36,548933,7
testing,NA,3100.3250000067055,NA,NA,NA,NA,html-button-response,19,166091,15
testing,NA,2141.9999999925494,NA,NA,NA,NA,html-button-response,37,551582,7
testing,chair,9383.799999952316,familiar,far,diningtable.jpg,wardrobe.jpg,survey-text,20,175984,15
testing,shirt,43958.47000000009,familiar,close,poloshirt.jpg,hawaiishirt.jpg,survey-text,44,331816,16
testing,sedan,6488.479999999981,familiar,close,sedan.jpg,sportscar.jpg,survey-text,45,338809,16
testing,NA,848.7500000000582,NA,NA,NA,NA,html-button-response,46,340162,16
testing,animal,13220.54999996908,familiar,far,sparrow.jpg,squirrel.jpg,survey-text,21,189711,15
testing,splits,5980.469999999972,tangram,isolated,F1.jpg,W1.jpg,survey-text,47,346648,16
testing,dress,5122.845000005327,familiar,far,poloshirt.jpg,dress.jpg,survey-text,22,195343,15
testing,celebrate,3160.374999999942,tangram,isolated,E1.jpg,F1.jpg,survey-text,48,350312,16
testing,bend,4031.00499999983,tangram,isolated,K1.jpg,T1.jpg,survey-text,49,354848,16
testing,grizzly,32900.00000002328,familiar,close,grizzlybear.jpg,polarbear.jpg,survey-text,38,584996,7
testing,pray,2447.4300000001676,tangram,isolated,H1.jpg,Y1.jpg,survey-text,50,357799,16
testing,sit,3184.5800000001327,tangram,isolated,G1.jpg,M1.jpg,survey-text,51,361488,16
testing,snacks,11260.490000015125,familiar,far,mnms.jpg,pretzels.jpg,survey-text,23,207122,15
testing,frolick,2543.230000000214,tangram,isolated,A1.jpg,A2.jpg,survey-text,52,364535,16
testing,serve,2776.2949999996927,tangram,isolated,I1.jpg,J1.jpg,survey-text,53,367816,16
testing,goldfish,14616.999999969266,familiar,close,goldfish.jpg,swordfish.jpg,survey-text,39,600128,7
testing,walk,2377.1200000001118,tangram,isolated,B1.jpg,P1.jpg,survey-text,54,370698,16
testing,animal,15808.230000024196,familiar,far,goldfish.jpg,iguana.jpg,survey-text,24,223442,15
testing,car,11744.999999995343,familiar,close,sedan.jpg,sportscar.jpg,survey-text,40,612386,7
testing,NA,3563.0000000819564,NA,NA,NA,NA,html-button-response,0,3571,13
testing,NA,2924.000000115484,NA,NA,NA,NA,html-button-response,1,7505,13
testing,animal,19030.970000021625,familiar,far,germanshepherd.jpg,cow.jpg,survey-text,25,242983,15
testing,dog,15285.999999963678,familiar,close,germanshepherd.jpg,pug.jpg,survey-text,41,628184,7
testing,vechicle,6252.214999985881,familiar,far,sedan.jpg,firetruck.jpg,survey-text,26,249742,15
testing,B,9120.000000111759,familiar,isolated,grizzlybear.jpg,polarbear.jpg,survey-text,2,17138,13
testing,table,8650.000000023283,familiar,close,diningtable.jpg,picnictable.jpg,survey-text,42,637348,7
testing,T,6030.999999959022,familiar,isolated,poloshirt.jpg,hawaiishirt.jpg,survey-text,3,23672,13
testing,animal,7619.375000009313,familiar,far,grizzlybear.jpg,lion.jpg,survey-text,27,257883,15
testing,NA,2336.1900000018068,NA,NA,NA,NA,html-button-response,28,260723,15
testing,B,7006.999999983236,familiar,isolated,diningtable.jpg,picnictable.jpg,survey-text,4,31212,13
testing,C,3800.000000046566,familiar,isolated,sedan.jpg,sportscar.jpg,survey-text,5,35520,13
testing,NA,16482.490000023972,NA,NA,NA,NA,html-button-response,0,16484,9
testing,F,3655.0000000279397,familiar,isolated,goldfish.jpg,swordfish.jpg,survey-text,6,39693,13
testing,logo,14534.210000012536,tangram,isolated,E1.jpg,F1.jpg,survey-text,29,275785,15
testing,NA,1817.9450000170618,NA,NA,NA,NA,html-button-response,1,19307,9
testing,sparrow,23915.000000037253,familiar,close,sparrow.jpg,eagle.jpg,survey-text,43,661774,7
testing,logo,6808.834999974351,tangram,isolated,F1.jpg,W1.jpg,survey-text,30,283103,15
testing,shirt,8010.999999998603,familiar,close,poloshirt.jpg,hawaiishirt.jpg,survey-text,44,670297,7
testing,Honda,10846.36500000488,familiar,close,sedan.jpg,sportscar.jpg,survey-text,2,30659,9
testing,NA,81462.67999999691,NA,NA,NA,NA,html-button-response,0,81465,18
testing,NA,4352.450000005774,NA,NA,NA,NA,html-button-response,1,86822,18
testing,chocolates,8545.00000004191,familiar,close,mnms.jpg,gummybears.jpg,survey-text,45,679353,7
testing,circular,8352.17999998713,familiar,close,mnms.jpg,gummybears.jpg,survey-text,3,39515,9
testing,NA,1744.9999999953434,NA,NA,NA,NA,html-button-response,46,681621,7
testing,graduate,13982.31999995187,tangram,isolated,H1.jpg,Y1.jpg,survey-text,31,297595,15
testing,brown,4592.145000002347,familiar,close,grizzlybear.jpg,polarbear.jpg,survey-text,4,44610,9
testing,man,8159.905000007711,tangram,isolated,I1.jpg,J1.jpg,survey-text,32,306265,15
testing,long,15184.970000002068,familiar,close,diningtable.jpg,picnictable.jpg,survey-text,5,60298,9
testing,shapes,21087.999999988824,tangram,far,A1.jpg,D1.jpg,survey-text,47,703224,7
testing,dance,12352.52000001492,tangram,isolated,A1.jpg,A2.jpg,survey-text,33,319127,15
testing,CHOCOLATE,48893.00000015646,familiar,isolated,mnms.jpg,gummybears.jpg,survey-text,7,89100,13
testing,orange,6329.904999991413,familiar,close,goldfish.jpg,swordfish.jpg,survey-text,6,67131,9
testing,dog,6558.765000023413,tangram,isolated,K1.jpg,T1.jpg,survey-text,34,326194,15
testing,human,11456.999999994878,tangram,far,F1.jpg,C1.jpg,survey-text,48,715194,7
testing,BIRD,11554.000000003725,familiar,isolated,sparrow.jpg,eagle.jpg,survey-text,8,101165,13
testing,women,8300.859999959357,tangram,isolated,G1.jpg,M1.jpg,survey-text,35,335013,15
testing,monochrome,10456.83999999892,familiar,close,poloshirt.jpg,hawaiishirt.jpg,survey-text,7,78091,9
testing,DOG,3686.000000219792,familiar,isolated,germanshepherd.jpg,pug.jpg,survey-text,9,105360,13
testing,shepherd,6552.1150000276975,familiar,close,germanshepherd.jpg,pug.jpg,survey-text,8,85147,9
testing,NA,2716.9999999459833,NA,NA,NA,NA,html-button-response,10,108594,13
testing,step,10177.574999979697,tangram,isolated,B1.jpg,P1.jpg,survey-text,36,345703,15
testing,NA,19459.940000000002,NA,NA,NA,NA,html-button-response,0,19463,4
testing,human,15645.000000018626,tangram,far,I1.jpg,R1.jpg,survey-text,49,731355,7
testing,NA,1876.6250000335276,NA,NA,NA,NA,html-button-response,37,348084,15
testing,NA,2779.4000000000015,NA,NA,NA,NA,html-button-response,1,23253,4
testing,small,8000.620000006165,familiar,close,sparrow.jpg,eagle.jpg,survey-text,9,93650,9
testing,NA,2033.8749999646097,NA,NA,NA,NA,html-button-response,10,96187,9
testing,run,4765.0599999469705,tangram,far,I1.jpg,R1.jpg,survey-text,38,353357,15
testing,human,10160.999999963678,tangram,far,K1.jpg,V1.jpg,survey-text,50,742032,7
testing,step,5693.599999998696,tangram,far,B1.jpg,O1.jpg,survey-text,39,359564,15
testing,standing,6201.765000005253,tangram,far,G1.jpg,N1.jpg,survey-text,11,102891,9
testing,MEN,20227.99999988638,tangram,close,H1.jpg,Y1.jpg,survey-text,11,129326,13
testing,begging,4384.22000000719,tangram,far,H1.jpg,A2.jpg,survey-text,12,107779,9
testing,human,6913.000000000466,tangram,far,H1.jpg,A2.jpg,survey-text,51,749455,7
testing,dance,5164.37999997288,tangram,far,E1.jpg,C2.jpg,survey-text,40,365240,15
testing,grizzly,17190.899999999998,familiar,close,grizzlybear.jpg,polarbear.jpg,survey-text,2,40962,4
testing,BEGGER,6358.999999938533,tangram,close,I1.jpg,J1.jpg,survey-text,12,136194,13
testing,human,5456.999999994878,tangram,far,B1.jpg,O1.jpg,survey-text,52,755435,7
testing,run,5057.1850000415,tangram,far,K1.jpg,V1.jpg,survey-text,41,370807,15
testing,human,8809.000000008382,tangram,far,E1.jpg,C2.jpg,survey-text,53,764754,7
testing,leaning,15020.80500003649,tangram,far,K1.jpg,V1.jpg,survey-text,13,123307,9
testing,dance,10603.530000022147,tangram,far,H1.jpg,A2.jpg,survey-text,42,381924,15
testing,SITTING,11722.999999998137,tangram,close,G1.jpg,M1.jpg,survey-text,13,148427,13
testing,M&Ms,15885.560000000005,familiar,close,mnms.jpg,gummybears.jpg,survey-text,3,57362,4
testing,sad,5175.615000014659,tangram,far,B1.jpg,O1.jpg,survey-text,14,128986,9
testing,dance,5296.2749999715015,tangram,far,G1.jpg,N1.jpg,survey-text,43,387731,15
testing,human,7365.999999979977,tangram,far,G1.jpg,N1.jpg,survey-text,54,772634,7
testing,running,5081.074999994598,tangram,far,A1.jpg,D1.jpg,survey-text,15,134570,9
testing,SHADOW,11452.000000048429,tangram,close,K1.jpg,T1.jpg,survey-text,14,160388,13
testing,pray,6642.700000025798,tangram,far,F1.jpg,C1.jpg,survey-text,44,394884,15
testing,SAD,4837.999999988824,tangram,close,B1.jpg,P1.jpg,survey-text,15,165761,13
testing,asking,7576.920000021346,tangram,far,I1.jpg,R1.jpg,survey-text,16,142651,9
testing,large,16727.140000000007,familiar,close,germanshepherd.jpg,pug.jpg,survey-text,4,74601,4
testing,human,8927.520000026561,tangram,far,A1.jpg,D1.jpg,survey-text,45,404326,15
testing,FLYING,6033.999999985099,tangram,close,E1.jpg,F1.jpg,survey-text,16,172306,13
testing,excited,6608.210000034887,tangram,far,F1.jpg,C1.jpg,survey-text,17,149763,9
testing,NA,2017.8949999972247,NA,NA,NA,NA,html-button-response,46,406849,15
testing,jumping,3520.1300000189804,tangram,far,E1.jpg,C2.jpg,survey-text,18,153786,9
testing,beg,4824.8400000156835,tangram,close,K1.jpg,T1.jpg,survey-text,47,412193,15
testing,RUNNING,5766.999999992549,tangram,close,A1.jpg,A2.jpg,survey-text,17,178578,13
testing,NA,1329.135000007227,NA,NA,NA,NA,html-button-response,19,155618,9
testing,begging,5209.184999985155,tangram,isolated,H1.jpg,Y1.jpg,survey-text,20,161330,9
testing,dance,6182.649999973364,tangram,close,E1.jpg,F1.jpg,survey-text,48,418884,15
testing,jumping,2632.449999975506,tangram,isolated,E1.jpg,F1.jpg,survey-text,21,164466,9
testing,ENLOYABLE,8587.000000057742,tangram,close,F1.jpg,W1.jpg,survey-text,18,187666,13
testing,dance,4419.754999980796,tangram,close,F1.jpg,W1.jpg,survey-text,49,423824,15
testing,NA,2823.0000000912696,NA,NA,NA,NA,html-button-response,19,190994,13
testing,excited,5052.790000045206,tangram,isolated,F1.jpg,W1.jpg,survey-text,22,170026,9
testing,human,5171.4800000190735,tangram,close,G1.jpg,M1.jpg,survey-text,50,429505,15
testing,RUN,5913.99999987334,tangram,far,A1.jpg,D1.jpg,survey-text,20,197411,13
testing,standing,4568.090000015218,tangram,isolated,G1.jpg,M1.jpg,survey-text,23,175098,9
testing,asking,2721.635000023525,tangram,isolated,I1.jpg,J1.jpg,survey-text,24,178322,9
testing,SAD,4131.000000052154,tangram,far,B1.jpg,O1.jpg,survey-text,21,202053,13
testing,step,6227.264999994077,tangram,close,A1.jpg,A2.jpg,survey-text,51,436243,15
testing,leaning,3385.3200000012293,tangram,isolated,K1.jpg,T1.jpg,survey-text,25,182211,9
testing,pray,6244.030000001658,tangram,close,I1.jpg,J1.jpg,survey-text,52,443000,15
testing,running,3503.8449999992736,tangram,isolated,A1.jpg,A2.jpg,survey-text,26,186219,9
testing,SITTING,9087.000000057742,tangram,far,G1.jpg,N1.jpg,survey-text,22,211653,13
testing,sad,1922.0299999578856,tangram,isolated,B1.jpg,P1.jpg,survey-text,27,188644,9
testing,NA,1209.340000001248,NA,NA,NA,NA,html-button-response,28,190354,9
testing,BEGGER,4476.9999999552965,tangram,far,I1.jpg,R1.jpg,survey-text,23,216641,13
testing,pray,7296.009999990929,tangram,close,H1.jpg,Y1.jpg,survey-text,53,450823,15
testing,bear,3992.0450000208803,familiar,isolated,grizzlybear.jpg,polarbear.jpg,survey-text,29,194850,9
testing,STANDING,6566.999999806285,tangram,far,K1.jpg,V1.jpg,survey-text,24,223743,13
testing,goldfish,5801.5550000127405,familiar,isolated,goldfish.jpg,swordfish.jpg,survey-text,30,201154,9
testing,stand,9624.959999986459,tangram,close,B1.jpg,P1.jpg,survey-text,54,460958,15
testing,candy,8121.6199999907985,familiar,isolated,mnms.jpg,gummybears.jpg,survey-text,31,209779,9
testing,Honda,3087.455000029877,familiar,isolated,sedan.jpg,sportscar.jpg,survey-text,32,213371,9
testing,ENJOYABLE,15709.000000031665,tangram,far,F1.jpg,C1.jpg,survey-text,25,239978,13
testing,bird,4089.914999960456,familiar,isolated,sparrow.jpg,eagle.jpg,survey-text,33,217964,9
testing,shirt,3251.8050000071526,familiar,isolated,poloshirt.jpg,hawaiishirt.jpg,survey-text,34,221723,9
testing,table,2824.979999975767,familiar,isolated,diningtable.jpg,picnictable.jpg,survey-text,35,225051,9
testing,ENJOYABLE,7897.000000113621,tangram,far,E1.jpg,C2.jpg,survey-text,26,248395,13
testing,dog,2920.5349999829195,familiar,isolated,germanshepherd.jpg,pug.jpg,survey-text,36,228475,9
testing,NA,1073.8050000509247,NA,NA,NA,NA,html-button-response,37,230051,9
testing,SITTING,6393.999999854714,tangram,far,H1.jpg,A2.jpg,survey-text,27,255295,13
testing,NA,3580.000000074506,NA,NA,NA,NA,html-button-response,28,259377,13
testing,leaning,7159.795000043232,tangram,close,K1.jpg,T1.jpg,survey-text,38,237714,9
testing,BENCH,5760.000000009313,familiar,close,diningtable.jpg,picnictable.jpg,survey-text,29,265650,13
testing,jumping,4978.275000001304,tangram,close,E1.jpg,F1.jpg,survey-text,39,243196,9
testing,SHIRT,4126.000000163913,familiar,close,poloshirt.jpg,hawaiishirt.jpg,survey-text,30,270293,13
testing,sad,5657.14999998454,tangram,close,G1.jpg,M1.jpg,survey-text,40,249355,9
testing,FISH,2628.000000026077,familiar,close,goldfish.jpg,swordfish.jpg,survey-text,31,273435,13
testing,DOG,2689.9999999441206,familiar,close,germanshepherd.jpg,pug.jpg,survey-text,32,276637,13
testing,BIRD,3682.9999999608845,familiar,close,sparrow.jpg,eagle.jpg,survey-text,33,280827,13
testing,BEAR,2776.0000000707805,familiar,close,grizzlybear.jpg,polarbear.jpg,survey-text,34,284114,13
testing,excited,16447.67000002321,tangram,close,F1.jpg,W1.jpg,survey-text,41,266307,9
testing,CHOCOLATE,5751.999999862164,familiar,close,mnms.jpg,gummybears.jpg,survey-text,35,290379,13
testing,CAR,2123.9999998360872,familiar,close,sedan.jpg,sportscar.jpg,survey-text,36,293032,13
testing,running,7680.6349999969825,tangram,close,A1.jpg,A2.jpg,survey-text,42,274491,9
testing,NA,5127.999999793246,NA,NA,NA,NA,html-button-response,37,298669,13
testing,DOG,2452.999999979511,familiar,far,germanshepherd.jpg,cow.jpg,survey-text,38,301634,13
testing,sad,3976.5449999831617,tangram,close,B1.jpg,P1.jpg,survey-text,43,278971,9
testing,CHOCOLATE,3254.00000018999,familiar,far,mnms.jpg,pretzels.jpg,survey-text,39,305400,13
testing,begging,3664.1149999923073,tangram,close,H1.jpg,Y1.jpg,survey-text,44,283139,9
testing,SHIRT,2913.99999987334,familiar,far,poloshirt.jpg,dress.jpg,survey-text,40,308829,13
testing,asking,2312.0749999652617,tangram,close,I1.jpg,J1.jpg,survey-text,45,285954,9
testing,NA,1051.450000028126,NA,NA,NA,NA,html-button-response,46,287507,9
testing,BIRD,3330.000000074506,familiar,far,sparrow.jpg,squirrel.jpg,survey-text,41,312679,13
testing,blue,4632.159999979194,familiar,far,sedan.jpg,firetruck.jpg,survey-text,47,292643,9
testing,BENCH,2859.999999869615,familiar,far,diningtable.jpg,wardrobe.jpg,survey-text,42,316048,13
testing,BEAR,1989.9999999906868,familiar,far,grizzlybear.jpg,lion.jpg,survey-text,43,318548,13
testing,fish,2536.725000012666,familiar,far,goldfish.jpg,iguana.jpg,survey-text,48,295683,9
testing,FISH,2285.999999847263,familiar,far,goldfish.jpg,iguana.jpg,survey-text,44,321345,13
testing,candy,3399.814999953378,familiar,far,mnms.jpg,pretzels.jpg,survey-text,49,299586,9
testing,CAR,1927.9999998398125,familiar,far,sedan.jpg,firetruck.jpg,survey-text,45,323779,13
testing,shirt,2160.9499999904074,familiar,far,poloshirt.jpg,dress.jpg,survey-text,50,302251,9
testing,NA,1894.9999997857958,NA,NA,NA,NA,html-button-response,46,326175,13
testing,bear,1913.5999999707565,familiar,far,grizzlybear.jpg,lion.jpg,survey-text,51,304674,9
testing,bird,1968.3300000033341,familiar,far,sparrow.jpg,squirrel.jpg,survey-text,52,307146,9
testing,table,1760.2150000166148,familiar,far,diningtable.jpg,wardrobe.jpg,survey-text,53,309410,9
testing,dog,1449.544999981299,familiar,far,germanshepherd.jpg,cow.jpg,survey-text,54,311363,9
testing,BEGGING,8293.00000006333,tangram,isolated,K1.jpg,T1.jpg,survey-text,47,334979,13
testing,SITTING,3145.0000000186265,tangram,isolated,G1.jpg,M1.jpg,survey-text,48,338637,13
testing,ENJOYABLE,7101.9999999552965,tangram,isolated,F1.jpg,W1.jpg,survey-text,49,346252,13
testing,BEGGING,3719.9999999720603,tangram,isolated,I1.jpg,J1.jpg,survey-text,50,350476,13
testing,WALKING,6614.999999990687,tangram,isolated,A1.jpg,A2.jpg,survey-text,51,357637,13
testing,BEGGING,7554.000000003725,tangram,isolated,H1.jpg,Y1.jpg,survey-text,52,365698,13
testing,ENJOYABLE,5503.000000026077,tangram,isolated,E1.jpg,F1.jpg,survey-text,53,371716,13
testing,SA,2064.0000000130385,tangram,isolated,B1.jpg,P1.jpg,survey-text,54,374294,13
testing,NA,24020.690000004834,NA,NA,NA,NA,html-button-response,0,24023,23
testing,NA,7425.965000002179,NA,NA,NA,NA,html-button-response,1,32455,23
testing,thin,19450.324999997974,tangram,close,H1.jpg,Y1.jpg,survey-text,2,52410,23
testing,tall,31220.215000008466,tangram,close,K1.jpg,T1.jpg,survey-text,3,84133,23
testing,big,15673.865000004298,tangram,close,F1.jpg,W1.jpg,survey-text,4,100312,23
testing,jump,5631.664999993518,tangram,close,E1.jpg,F1.jpg,survey-text,5,106448,23
testing,sad,7552.874999993946,tangram,close,B1.jpg,P1.jpg,survey-text,6,114505,23
testing,bald,20338.53999999701,tangram,close,A1.jpg,A2.jpg,survey-text,7,135347,23
testing,bent,7769.795000000158,tangram,close,I1.jpg,J1.jpg,survey-text,8,143620,23
testing,kneel,5434.045000001788,tangram,close,G1.jpg,M1.jpg,survey-text,9,149557,23
testing,NA,2281.3749999913853,NA,NA,NA,NA,html-button-response,10,152341,23
testing,dog,6521.219999995083,familiar,far,germanshepherd.jpg,cow.jpg,survey-text,11,159366,23
testing,chocolate,6674.53000000387,familiar,far,mnms.jpg,pretzels.jpg,survey-text,12,166543,23
testing,fish,2631.22999999905,familiar,far,goldfish.jpg,iguana.jpg,survey-text,13,169679,23
testing,table,2441.3300000014715,familiar,far,diningtable.jpg,wardrobe.jpg,survey-text,14,172623,23
testing,car,1945.544999995036,familiar,far,sedan.jpg,firetruck.jpg,survey-text,15,175072,23
testing,shirt,4281.784999999218,familiar,far,poloshirt.jpg,dress.jpg,survey-text,16,179857,23
testing,bird,2215.299999996205,familiar,far,sparrow.jpg,squirrel.jpg,survey-text,17,182577,23
testing,bear,2616.504999998142,familiar,far,grizzlybear.jpg,lion.jpg,survey-text,18,185697,23
testing,NA,4938.234999994165,NA,NA,NA,NA,html-button-response,19,191137,23
testing,bear,2754.144999998971,familiar,isolated,grizzlybear.jpg,polarbear.jpg,survey-text,20,194394,23
testing,fish,1904.515000001993,familiar,isolated,goldfish.jpg,swordfish.jpg,survey-text,21,196803,23
testing,dog,2977.5250000093365,familiar,isolated,germanshepherd.jpg,pug.jpg,survey-text,22,200283,23
testing,NA,14317.04500000069,NA,NA,NA,NA,html-button-response,0,14320,21
testing,bird,2299.4999999937136,familiar,isolated,sparrow.jpg,eagle.jpg,survey-text,23,203092,23
testing,car,2529.6550000057323,familiar,isolated,sedan.jpg,sportscar.jpg,survey-text,24,206124,23
testing,shirt,1384.1950000060024,familiar,isolated,poloshirt.jpg,hawaiishirt.jpg,survey-text,25,208012,23
testing,NA,5649.26000000014,NA,NA,NA,NA,html-button-response,1,20975,21
testing,candy,4504.904999994324,familiar,isolated,mnms.jpg,gummybears.jpg,survey-text,26,213021,23
testing,table,1585.015000004205,familiar,isolated,diningtable.jpg,picnictable.jpg,survey-text,27,215109,23
testing,NA,1883.0800000141608,NA,NA,NA,NA,html-button-response,28,217494,23
testing,small,5983.76499999722,familiar,close,sparrow.jpg,eagle.jpg,survey-text,29,223982,23
testing,color,17830.205000000205,familiar,far,poloshirt.jpg,dress.jpg,survey-text,2,39323,21
testing,chocolate,2817.1149999980116,familiar,close,mnms.jpg,gummybears.jpg,survey-text,30,227302,23
testing,blue,2281.9049999961862,familiar,close,sedan.jpg,sportscar.jpg,survey-text,31,230087,23
testing,bird,12298.404999999548,familiar,far,sparrow.jpg,squirrel.jpg,survey-text,3,52131,21
testing,seatless,20499.339999994845,familiar,close,diningtable.jpg,picnictable.jpg,survey-text,32,251089,23
testing,big,2760.4100000025937,familiar,close,germanshepherd.jpg,pug.jpg,survey-text,33,254354,23
testing,table,15254.684999999881,familiar,far,diningtable.jpg,wardrobe.jpg,survey-text,4,67904,21
testing,brown,2502.4149999953806,familiar,close,grizzlybear.jpg,polarbear.jpg,survey-text,34,257362,23
testing,gold,4376.660000008997,familiar,close,goldfish.jpg,swordfish.jpg,survey-text,35,262243,23
testing,gems,8543.384999999937,familiar,far,mnms.jpg,pretzels.jpg,survey-text,5,76970,21
testing,plain,2976.9800000067335,familiar,close,poloshirt.jpg,hawaiishirt.jpg,survey-text,36,265723,23
testing,NA,1697.439999989001,NA,NA,NA,NA,html-button-response,37,267923,23
testing,bear,9147.934999999954,familiar,far,grizzlybear.jpg,lion.jpg,survey-text,6,86630,21
testing,walk,7874.339999994845,tangram,isolated,B1.jpg,P1.jpg,survey-text,38,276301,23
testing,bent,9881.9749999966,tangram,isolated,K1.jpg,T1.jpg,survey-text,39,286686,23
testing,fish,14872.684999999357,familiar,far,goldfish.jpg,iguana.jpg,survey-text,7,102039,21
testing,run,2873.860000006971,tangram,isolated,A1.jpg,A2.jpg,survey-text,40,290062,23
testing,jump,3033.8950000004843,tangram,isolated,E1.jpg,F1.jpg,survey-text,41,293599,23
testing,dog,8680.844999999856,familiar,far,germanshepherd.jpg,cow.jpg,survey-text,8,111240,21
testing,bow,5497.1000000077765,tangram,isolated,I1.jpg,J1.jpg,survey-text,42,299599,23
testing,kneel,2168.5600000055274,tangram,isolated,G1.jpg,M1.jpg,survey-text,43,302272,23
testing,car,5352.354999999996,familiar,far,sedan.jpg,firetruck.jpg,survey-text,9,117105,21
testing,run,3057.4950000009267,tangram,isolated,F1.jpg,W1.jpg,survey-text,44,305832,23
testing,NA,4023.409999999785,NA,NA,NA,NA,html-button-response,10,121637,21
testing,hold,5850.210000004154,tangram,isolated,H1.jpg,Y1.jpg,survey-text,45,312185,23
testing,NA,2170.750000004773,NA,NA,NA,NA,html-button-response,46,314857,23
testing,color,10976.004999999539,familiar,close,sedan.jpg,sportscar.jpg,survey-text,11,133122,21
testing,stand,5551.47500000021,tangram,far,H1.jpg,A2.jpg,survey-text,47,320913,23
testing,stationary,7042.290000012144,tangram,far,I1.jpg,R1.jpg,survey-text,48,328458,23
testing,run,3360.0850000075297,tangram,far,F1.jpg,C1.jpg,survey-text,49,332323,23
testing,walk,2513.630000001285,tangram,far,B1.jpg,O1.jpg,survey-text,50,335339,23
testing,small,16320.90999999945,familiar,close,sparrow.jpg,eagle.jpg,survey-text,12,149985,21
testing,bend,3497.864999997546,tangram,far,K1.jpg,V1.jpg,survey-text,51,339340,23
testing,kneel,3225.4550000070594,tangram,far,G1.jpg,N1.jpg,survey-text,52,343068,23
testing,run,3108.6150000046473,tangram,far,A1.jpg,D1.jpg,survey-text,53,346685,23
testing,plain,10878.254999999626,familiar,close,poloshirt.jpg,hawaiishirt.jpg,survey-text,13,161372,21
testing,jump,2481.755000000703,tangram,far,E1.jpg,C2.jpg,survey-text,54,349669,23
testing,golden,8550.78499999945,familiar,close,goldfish.jpg,swordfish.jpg,survey-text,14,170446,21
testing,dark,12110.390000000742,familiar,close,grizzlybear.jpg,polarbear.jpg,survey-text,15,183083,21
testing,dinning,9880.005000000005,familiar,close,diningtable.jpg,picnictable.jpg,survey-text,16,193480,21
testing,gems,6335.630000000499,familiar,close,mnms.jpg,gummybears.jpg,survey-text,17,200323,21
testing,long,8760.044999999984,familiar,close,germanshepherd.jpg,pug.jpg,survey-text,18,209602,21
testing,NA,2195.789999999746,NA,NA,NA,NA,html-button-response,19,212306,21
testing,bear,6038.680000000546,familiar,isolated,grizzlybear.jpg,polarbear.jpg,survey-text,20,218866,21
testing,sparrow,9480.155000000173,familiar,isolated,sparrow.jpg,eagle.jpg,survey-text,21,228862,21
testing,fish,6185.975000000326,familiar,isolated,goldfish.jpg,swordfish.jpg,survey-text,22,235554,21
testing,shirt,6464.92499999929,familiar,isolated,poloshirt.jpg,hawaiishirt.jpg,survey-text,23,242525,21
testing,gems,10257.679999999702,familiar,isolated,mnms.jpg,gummybears.jpg,survey-text,24,253299,21
testing,blue,8244.510000000446,familiar,isolated,sedan.jpg,sportscar.jpg,survey-text,25,262055,21
testing,dog,5541.734999999811,familiar,isolated,germanshepherd.jpg,pug.jpg,survey-text,26,268115,21
testing,table,6860.7999999994645,familiar,isolated,diningtable.jpg,picnictable.jpg,survey-text,27,275484,21
testing,NA,73972.6550000005,NA,NA,NA,NA,html-button-response,28,349975,21
testing,begging,16280.029999999912,tangram,close,I1.jpg,J1.jpg,survey-text,29,366776,21
testing,serve,9945.310000000056,tangram,close,K1.jpg,T1.jpg,survey-text,30,377230,21
testing,jump,7873.200000000012,tangram,close,E1.jpg,F1.jpg,survey-text,31,385614,21
testing,NA,16015.999999828637,NA,NA,NA,NA,html-button-response,0,16025,10
testing,leap,9984.494999999704,tangram,close,F1.jpg,W1.jpg,survey-text,32,396113,21
testing,NA,4694.00000013411,NA,NA,NA,NA,html-button-response,1,21725,10
testing,knee,9714.114999999816,tangram,close,H1.jpg,Y1.jpg,survey-text,33,406347,21
testing,LOGO,13658.999999985099,tangram,isolated,I1.jpg,J1.jpg,survey-text,2,35887,10
testing,down,9561.745000000868,tangram,close,G1.jpg,M1.jpg,survey-text,34,416416,21
testing,LOGO,6986.000000033528,tangram,isolated,H1.jpg,Y1.jpg,survey-text,3,43374,10
testing,running,9759.540000000037,tangram,close,A1.jpg,A2.jpg,survey-text,35,426691,21
testing,WALKING PERSON,8754.999999888241,tangram,isolated,B1.jpg,P1.jpg,survey-text,4,52631,10
testing,sad,7486.1599999994505,tangram,close,B1.jpg,P1.jpg,survey-text,36,434686,21
testing,NA,1885.0200000006007,NA,NA,NA,NA,html-button-response,37,437084,21
testing,SITTING PERSON,9568.99999966845,tangram,isolated,E1.jpg,F1.jpg,survey-text,5,62711,10
testing,sad,4939.7500000004075,tangram,isolated,B1.jpg,P1.jpg,survey-text,38,442530,21
testing,DANCING MAN,8712.999999988824,tangram,isolated,A1.jpg,A2.jpg,survey-text,6,71932,10
testing,up,9376.944999999949,tangram,isolated,F1.jpg,W1.jpg,survey-text,39,452427,21
testing,beg,6491.860000000102,tangram,isolated,H1.jpg,Y1.jpg,survey-text,40,459427,21
testing,SOMETHING FLYING,13733.00000000745,tangram,isolated,F1.jpg,W1.jpg,survey-text,7,86169,10
testing,STANDING PERSON,9787.999999709427,tangram,isolated,K1.jpg,T1.jpg,survey-text,8,96461,10
testing,running,12183.740000000398,tangram,isolated,A1.jpg,A2.jpg,survey-text,41,472132,21
testing,SITTING WOMAN,6306.000000331551,tangram,isolated,G1.jpg,M1.jpg,survey-text,9,103271,10
testing,jump,5987.134999999427,tangram,isolated,E1.jpg,F1.jpg,survey-text,42,478625,21
testing,NA,3695.9999999962747,NA,NA,NA,NA,html-button-response,10,107471,10
testing,sit,6136.304999999993,tangram,isolated,G1.jpg,M1.jpg,survey-text,43,485270,21
testing,CAR,6694.00000013411,familiar,close,sedan.jpg,sportscar.jpg,survey-text,11,114668,10
testing,beg,6768.160000000498,tangram,isolated,I1.jpg,J1.jpg,survey-text,44,492558,21
testing,GOLDEN FISH,7236.000000033528,familiar,close,goldfish.jpg,swordfish.jpg,survey-text,12,122412,10
testing,lean,6141.604999999807,tangram,isolated,K1.jpg,T1.jpg,survey-text,45,499221,21
testing,NA,1703.8750000001164,NA,NA,NA,NA,html-button-response,46,501438,21
testing,BIRD,4771.999999880791,familiar,close,sparrow.jpg,eagle.jpg,survey-text,13,127694,10
testing,BEAR,4189.000000245869,familiar,close,grizzlybear.jpg,polarbear.jpg,survey-text,14,132396,10
testing,sad,10095.115000000049,tangram,far,B1.jpg,O1.jpg,survey-text,47,512048,21
testing,DOG,4905.00000026077,familiar,close,germanshepherd.jpg,pug.jpg,survey-text,15,137814,10
testing,lean,6724.355000000272,tangram,far,K1.jpg,V1.jpg,survey-text,48,519316,21
testing,T SHIRT,8172.00000025332,familiar,close,poloshirt.jpg,hawaiishirt.jpg,survey-text,16,146495,10
testing,beg,6562.264999999548,tangram,far,H1.jpg,A2.jpg,survey-text,49,526393,21
testing,CANDY,5808.000000193715,familiar,close,mnms.jpg,gummybears.jpg,survey-text,17,152810,10
testing,TABLE,4699.999999720603,familiar,close,diningtable.jpg,picnictable.jpg,survey-text,18,158011,10
testing,donate,13276.469999999856,tangram,far,I1.jpg,R1.jpg,survey-text,50,540180,21
testing,NA,6557.000000029802,NA,NA,NA,NA,html-button-response,19,165071,10
testing,CANDY,4072.0000001601875,familiar,isolated,mnms.jpg,gummybears.jpg,survey-text,20,169653,10
testing,BEAR,3547.0000002533197,familiar,isolated,grizzlybear.jpg,polarbear.jpg,survey-text,21,173708,10
testing,relax,9211.540000000154,tangram,far,G1.jpg,N1.jpg,survey-text,51,549900,21
testing,T SHIRT,4125,familiar,isolated,poloshirt.jpg,hawaiishirt.jpg,survey-text,22,178351,10
testing,CAR,2635.9999999403954,familiar,isolated,sedan.jpg,sportscar.jpg,survey-text,23,181495,10
testing,DOG,3245.99999981001,familiar,isolated,germanshepherd.jpg,pug.jpg,survey-text,24,185249,10
testing,leap,12252.740000000806,tangram,far,F1.jpg,C1.jpg,survey-text,52,562670,21
testing,BIRD,2934.000000357628,familiar,isolated,sparrow.jpg,eagle.jpg,survey-text,25,188691,10
testing,TABLE,4854.000000283122,familiar,isolated,diningtable.jpg,picnictable.jpg,survey-text,26,194049,10
testing,run,6770.035000000382,tangram,far,A1.jpg,D1.jpg,survey-text,53,569953,21
testing,FISH,3466.9999997131526,familiar,isolated,goldfish.jpg,swordfish.jpg,survey-text,27,198032,10
testing,jump,5517.35999999987,tangram,far,E1.jpg,C2.jpg,survey-text,54,575986,21
testing,NA,4314.999999944121,NA,NA,NA,NA,html-button-response,28,202851,10
testing,BEAR,4211.00000012666,familiar,far,grizzlybear.jpg,lion.jpg,survey-text,29,207569,10
testing,BIRD,3833.9999997988343,familiar,far,sparrow.jpg,squirrel.jpg,survey-text,30,211914,10
testing,T SHIRT,4239.000000059605,familiar,far,poloshirt.jpg,dress.jpg,survey-text,31,216673,10
testing,DOG,3211.00000012666,familiar,far,germanshepherd.jpg,cow.jpg,survey-text,32,220391,10
testing,CANDY,3532.999999821186,familiar,far,mnms.jpg,pretzels.jpg,survey-text,33,224432,10
testing,FISH,3259.000000078231,familiar,far,goldfish.jpg,iguana.jpg,survey-text,34,228208,10
testing,TABLE,3875,familiar,far,diningtable.jpg,wardrobe.jpg,survey-text,35,232591,10
testing,CAR,2636.999999638647,familiar,far,sedan.jpg,firetruck.jpg,survey-text,36,235736,10
testing,NA,3013.000000268221,NA,NA,NA,NA,html-button-response,37,239251,10
testing,STANDING PERSON,6174.9999998137355,tangram,far,K1.jpg,V1.jpg,survey-text,38,245935,10
testing,RUNNING PERSON,7425.000000279397,tangram,far,F1.jpg,C1.jpg,survey-text,39,253873,10
testing,DANCING PERON,6478.000000119209,tangram,far,A1.jpg,D1.jpg,survey-text,40,260861,10
testing,WALKING PERSON,10385.999999940395,tangram,far,B1.jpg,O1.jpg,survey-text,41,271754,10
testing,MAN,7548.999999649823,tangram,far,I1.jpg,R1.jpg,survey-text,42,279809,10
testing,SITTING PERSON,8811.999999918044,tangram,far,E1.jpg,C2.jpg,survey-text,43,289143,10
testing,SITTING WOMAN,4753.000000026077,tangram,far,G1.jpg,N1.jpg,survey-text,44,294402,10
testing,SITTING PERSON,12203.999999910593,tangram,far,H1.jpg,A2.jpg,survey-text,45,307111,10
testing,NA,2822.999999858439,NA,NA,NA,NA,html-button-response,46,310437,10
testing,SITTING WOMAN,6879.00000018999,tangram,close,G1.jpg,M1.jpg,survey-text,47,317821,10
testing,SITTING MAN,4182.000000029802,tangram,close,E1.jpg,F1.jpg,survey-text,48,322511,10
testing,RUNNING ONE,6336.999999824911,tangram,close,A1.jpg,A2.jpg,survey-text,49,329358,10
testing,SITTING ONE,4583.000000100583,tangram,close,H1.jpg,Y1.jpg,survey-text,50,334449,10
testing,RUNNING ONE,5496.999999973923,tangram,close,F1.jpg,W1.jpg,survey-text,51,340449,10
testing,PERSON,8472.000000067055,tangram,close,I1.jpg,J1.jpg,survey-text,52,349427,10
testing,STANDING PERSON,6098.000000230968,tangram,close,K1.jpg,T1.jpg,survey-text,53,356031,10
testing,WALKING PERSON,5255.999999586493,tangram,close,B1.jpg,P1.jpg,survey-text,54,361788,10
testing,NA,12946.484999999939,NA,NA,NA,NA,html-button-response,0,12952,14
testing,NA,4221.435000000383,NA,NA,NA,NA,html-button-response,1,18191,14
testing,candy,10141.9649999998,familiar,isolated,mnms.jpg,gummybears.jpg,survey-text,2,28858,14
testing,bear,9782.45500000003,familiar,isolated,grizzlybear.jpg,polarbear.jpg,survey-text,3,39159,14
testing,dinning,12363.85000000018,familiar,isolated,diningtable.jpg,picnictable.jpg,survey-text,4,52040,14
testing,swimmer,12005.720000000103,familiar,isolated,goldfish.jpg,swordfish.jpg,survey-text,5,64568,14
testing,travel,13802.134999999893,familiar,isolated,sedan.jpg,sportscar.jpg,survey-text,6,78881,14
testing,protection,7169.080000000118,familiar,isolated,germanshepherd.jpg,pug.jpg,survey-text,7,86576,14
testing,flyer,24276.980000000083,familiar,isolated,sparrow.jpg,eagle.jpg,survey-text,8,111368,14
testing,clothes,5436.65499999997,familiar,isolated,poloshirt.jpg,hawaiishirt.jpg,survey-text,9,117331,14
testing,NA,4444.75499999999,NA,NA,NA,NA,html-button-response,10,122294,14
testing,bend,14733.88999999997,tangram,close,I1.jpg,J1.jpg,survey-text,11,137543,14
testing,run,3508.75499999983,tangram,close,A1.jpg,A2.jpg,survey-text,12,141559,14
testing,take,4525.099999999831,tangram,close,H1.jpg,Y1.jpg,survey-text,13,146599,14
testing,walking,19214.440000000177,tangram,close,B1.jpg,P1.jpg,survey-text,14,166320,14
testing,bird,8570.889999999956,tangram,close,F1.jpg,W1.jpg,survey-text,15,175413,14
testing,jump,4482.019999999902,tangram,close,E1.jpg,F1.jpg,survey-text,16,180406,14
testing,reach,5546.485000000306,tangram,close,K1.jpg,T1.jpg,survey-text,17,186469,14
testing,sit,3238.9700000003213,tangram,close,G1.jpg,M1.jpg,survey-text,18,190240,14
testing,NA,1919.9600000001665,NA,NA,NA,NA,html-button-response,19,192662,14
testing,run,15304.18000000008,tangram,far,F1.jpg,C1.jpg,survey-text,20,208490,14
testing,skipping,5355.124999999593,tangram,far,A1.jpg,D1.jpg,survey-text,21,214360,14
testing,sitting,4669.494999999646,tangram,far,G1.jpg,N1.jpg,survey-text,22,219545,14
testing,follow,6549.549999999726,tangram,far,B1.jpg,O1.jpg,survey-text,23,226600,14
testing,give,6373.160000000091,tangram,far,I1.jpg,R1.jpg,survey-text,24,233493,14
testing,take,4816.914999999892,tangram,far,H1.jpg,A2.jpg,survey-text,25,238826,14
testing,forward,6550.33500000037,tangram,far,K1.jpg,V1.jpg,survey-text,26,245888,14
testing,leap,4786.070000000094,tangram,far,E1.jpg,C2.jpg,survey-text,27,251190,14
testing,NA,1751.070000000269,NA,NA,NA,NA,html-button-response,28,253451,14
testing,baby,13279.089999999967,familiar,close,sparrow.jpg,eagle.jpg,survey-text,29,267269,14
testing,brown,10675.764999999956,familiar,close,grizzlybear.jpg,polarbear.jpg,survey-text,30,278456,14
testing,hard,5043.840000000317,familiar,close,mnms.jpg,gummybears.jpg,survey-text,31,284017,14
testing,long,3829.999999999942,familiar,close,diningtable.jpg,picnictable.jpg,survey-text,32,288371,14
testing,big,5953.669999999867,familiar,close,sedan.jpg,sportscar.jpg,survey-text,33,294842,14
testing,plain,6839.110000000335,familiar,close,poloshirt.jpg,hawaiishirt.jpg,survey-text,34,302197,14
testing,gold,4321.079999999725,familiar,close,goldfish.jpg,swordfish.jpg,survey-text,35,307029,14
testing,big,6688.285000000207,familiar,close,germanshepherd.jpg,pug.jpg,survey-text,36,314222,14
testing,NA,1342.875000000291,NA,NA,NA,NA,html-button-response,37,316068,14
testing,giving,8350.149999999732,tangram,isolated,K1.jpg,T1.jpg,survey-text,38,324938,14
testing,receiving,9504.599999999744,tangram,isolated,H1.jpg,Y1.jpg,survey-text,39,334955,14
testing,running,4010.6500000001397,tangram,isolated,A1.jpg,A2.jpg,survey-text,40,339482,14
testing,leaping,3720.7949999996927,tangram,isolated,F1.jpg,W1.jpg,survey-text,41,343712,14
testing,holding,6225.880000000005,tangram,isolated,I1.jpg,J1.jpg,survey-text,42,350459,14
testing,jumping,2788.4199999998673,tangram,isolated,E1.jpg,F1.jpg,survey-text,43,353762,14
testing,sitting,2069.419999999809,tangram,isolated,G1.jpg,M1.jpg,survey-text,44,356338,14
testing,follwin,3063.160000000149,tangram,isolated,B1.jpg,P1.jpg,survey-text,45,359908,14
testing,NA,2968.1799999998766,NA,NA,NA,NA,html-button-response,46,363391,14
testing,bear,8901.664999999863,familiar,far,grizzlybear.jpg,lion.jpg,survey-text,47,372808,14
testing,bird,2863.9800000000396,familiar,far,sparrow.jpg,squirrel.jpg,survey-text,48,376196,14
testing,shirt,1945.9550000001327,familiar,far,poloshirt.jpg,dress.jpg,survey-text,49,378649,14
testing,car,1656.6350000002421,familiar,far,sedan.jpg,firetruck.jpg,survey-text,50,380821,14
testing,fish,1728.4250000002212,familiar,far,goldfish.jpg,iguana.jpg,survey-text,51,383062,14
testing,dog,1726.3550000002724,familiar,far,germanshepherd.jpg,cow.jpg,survey-text,52,385295,14
testing,table,5853.0250000003725,familiar,far,diningtable.jpg,wardrobe.jpg,survey-text,53,391656,14
testing,candy,5242.385000000009,familiar,far,mnms.jpg,pretzels.jpg,survey-text,54,397406,14
testing,NA,1682.0000000298023,NA,NA,NA,NA,html-button-response,0,1686,11
testing,NA,1259.000000078231,NA,NA,NA,NA,html-button-response,1,3952,11
testing,bird,8103.000000119209,familiar,isolated,sparrow.jpg,eagle.jpg,survey-text,2,12563,11
testing,car,2813.0000000819564,familiar,isolated,sedan.jpg,sportscar.jpg,survey-text,3,15889,11
testing,shirt,3384.9999997764826,familiar,isolated,poloshirt.jpg,hawaiishirt.jpg,survey-text,4,19783,11
testing,cookies,15654.000000096858,familiar,isolated,mnms.jpg,gummybears.jpg,survey-text,5,35942,11
testing,table,4538.000000175089,familiar,isolated,diningtable.jpg,picnictable.jpg,survey-text,6,40991,11
testing,fish,3197.0000001601875,familiar,isolated,goldfish.jpg,swordfish.jpg,survey-text,7,44692,11
testing,bear,3804.0000000037253,familiar,isolated,grizzlybear.jpg,polarbear.jpg,survey-text,8,49000,11
testing,dog,3206.99999993667,familiar,isolated,germanshepherd.jpg,pug.jpg,survey-text,9,52712,11
testing,NA,936.9999999180436,NA,NA,NA,NA,html-button-response,10,54153,11
testing,birth,12764.999999664724,tangram,far,F1.jpg,C1.jpg,survey-text,11,67426,11
testing,run,6104.999999981374,tangram,far,A1.jpg,D1.jpg,survey-text,12,74061,11
testing,jump,8866.00000038743,tangram,far,E1.jpg,C2.jpg,survey-text,13,83436,11
testing,NA,180008.00000003073,NA,NA,NA,NA,html-button-response,0,180021,17
testing,NA,7358.000000007451,NA,NA,NA,NA,html-button-response,1,188452,17
testing,shapes,17309.999999939464,tangram,isolated,G1.jpg,M1.jpg,survey-text,2,206302,17
testing,square,19919.999999925494,tangram,isolated,E1.jpg,F1.jpg,survey-text,3,226781,17
testing,tree,42929.99999993481,tangram,isolated,K1.jpg,T1.jpg,survey-text,4,270251,17
testing,running,8724.999999976717,tangram,isolated,A1.jpg,A2.jpg,survey-text,5,279522,17
testing,walking,18981.00000002887,tangram,isolated,F1.jpg,W1.jpg,survey-text,6,299084,17
testing,bending,6787.000000011176,tangram,isolated,B1.jpg,P1.jpg,survey-text,7,306402,17
testing,bending,13489.999999990687,tangram,isolated,I1.jpg,J1.jpg,survey-text,8,320428,17
testing,reading,7564.0000000130385,tangram,isolated,H1.jpg,Y1.jpg,survey-text,9,328547,17
testing,NA,4599.999999976717,NA,NA,NA,NA,html-button-response,10,333696,17
testing,dog,13967.99999999348,familiar,far,germanshepherd.jpg,cow.jpg,survey-text,11,348206,17
testing,table,6363.000000012107,familiar,far,diningtable.jpg,wardrobe.jpg,survey-text,12,355090,17
testing,bear,45266.99999999255,familiar,far,grizzlybear.jpg,lion.jpg,survey-text,13,400890,17
testing,car,5165.999999968335,familiar,far,sedan.jpg,firetruck.jpg,survey-text,14,406595,17
testing,shirt,8062.000000034459,familiar,far,poloshirt.jpg,dress.jpg,survey-text,15,415194,17
testing,sweet,12316.9999999227,familiar,far,mnms.jpg,pretzels.jpg,survey-text,16,428031,17
testing,fish,5161.000000080094,familiar,far,goldfish.jpg,iguana.jpg,survey-text,17,433712,17
testing,bird,21930.999999982305,familiar,far,sparrow.jpg,squirrel.jpg,survey-text,18,456167,17
testing,NA,5287.000000011176,NA,NA,NA,NA,html-button-response,19,461983,17
testing,sitting,8790.000000037253,tangram,close,E1.jpg,F1.jpg,survey-text,20,471292,17
testing,readinf,17012.999999918975,tangram,close,H1.jpg,Y1.jpg,survey-text,21,488824,17
testing,bending,13386.00000005681,tangram,close,K1.jpg,T1.jpg,survey-text,22,502803,17
testing,running,6569.999999948777,tangram,close,A1.jpg,A2.jpg,survey-text,23,509901,17
testing,bending,6459.999999962747,tangram,close,B1.jpg,P1.jpg,survey-text,24,516900,17
testing,sitting,8372.000000090338,tangram,close,G1.jpg,M1.jpg,survey-text,25,525794,17
testing,bending,9162.000000011176,tangram,close,I1.jpg,J1.jpg,survey-text,26,535481,17
testing,running,7415.999999968335,tangram,close,F1.jpg,W1.jpg,survey-text,27,543441,17
testing,NA,2534.999999916181,NA,NA,NA,NA,html-button-response,28,546485,17
testing,sweet,5037.999999942258,familiar,close,mnms.jpg,gummybears.jpg,survey-text,29,552097,17
testing,bird,7772.999999928288,familiar,close,sparrow.jpg,eagle.jpg,survey-text,30,560395,17
testing,shirt,7381.000000052154,familiar,close,poloshirt.jpg,hawaiishirt.jpg,survey-text,31,568290,17
testing,dog,5211.000000010245,familiar,close,germanshepherd.jpg,pug.jpg,survey-text,32,574021,17
testing,fish,6513.00000003539,familiar,close,goldfish.jpg,swordfish.jpg,survey-text,33,581137,17
testing,table,5851.9999999552965,familiar,close,diningtable.jpg,picnictable.jpg,survey-text,34,587504,17
testing,bear,6913.999999989755,familiar,close,grizzlybear.jpg,polarbear.jpg,survey-text,35,594953,17
testing,car,7456.000000005588,familiar,close,sedan.jpg,sportscar.jpg,survey-text,36,602987,17
testing,NA,2373.0000000214204,NA,NA,NA,NA,html-button-response,37,605890,17
testing,dog,7415.000000037253,familiar,isolated,germanshepherd.jpg,pug.jpg,survey-text,38,613828,17
testing,shirt,6244.000000064261,familiar,isolated,poloshirt.jpg,hawaiishirt.jpg,survey-text,39,620628,17
testing,fish,5609.99999998603,familiar,isolated,goldfish.jpg,swordfish.jpg,survey-text,40,626799,17
testing,sweet,5282.000000006519,familiar,isolated,mnms.jpg,gummybears.jpg,survey-text,41,632607,17
testing,car,6770.000000018626,familiar,isolated,sedan.jpg,sportscar.jpg,survey-text,42,639905,17
testing,bird,6486.99999996461,familiar,isolated,sparrow.jpg,eagle.jpg,survey-text,43,646929,17
testing,bear,4922.000000020489,familiar,isolated,grizzlybear.jpg,polarbear.jpg,survey-text,44,652389,17
testing,table,4454.9999999580905,familiar,isolated,diningtable.jpg,picnictable.jpg,survey-text,45,657369,17
testing,NA,2140.999999945052,NA,NA,NA,NA,html-button-response,46,660033,17
testing,running,6381.999999983236,tangram,far,A1.jpg,D1.jpg,survey-text,47,666933,17
testing,sitting,5626.000000047497,tangram,far,G1.jpg,N1.jpg,survey-text,48,673076,17
testing,bending,5907.000000006519,tangram,far,K1.jpg,V1.jpg,survey-text,49,679503,17
testing,walking,17868.999999947846,tangram,far,F1.jpg,C1.jpg,survey-text,50,697907,17
testing,reading,29495.999999926426,tangram,far,H1.jpg,A2.jpg,survey-text,51,728114,17
testing,bending,8910.999999963678,tangram,far,B1.jpg,O1.jpg,survey-text,52,737550,17
testing,reading,9893.999999971129,tangram,far,I1.jpg,R1.jpg,survey-text,53,748013,17
testing,sitting,6514.000000082888,tangram,far,E1.jpg,C2.jpg,survey-text,54,755042,17
testing,NA,26804.040000017267,NA,NA,NA,NA,html-button-response,0,26807,29
testing,NA,5557.9300000099465,NA,NA,NA,NA,html-button-response,1,33368,29
testing,Shirt,6511.0550000099465,familiar,far,poloshirt.jpg,dress.jpg,survey-text,2,40383,29
testing,bird,5011.3949999795295,familiar,far,sparrow.jpg,squirrel.jpg,survey-text,3,45897,29
testing,dog,2755.7050000177696,familiar,far,germanshepherd.jpg,cow.jpg,survey-text,4,49156,29
testing,goldfish,3759.1900000115857,familiar,far,goldfish.jpg,iguana.jpg,survey-text,5,53417,29
testing,bear,2695.4750000149943,familiar,far,grizzlybear.jpg,lion.jpg,survey-text,6,56615,29
testing,table,3567.795000039041,familiar,far,diningtable.jpg,wardrobe.jpg,survey-text,7,60685,29
testing,candy,2645.0950000435114,familiar,far,mnms.jpg,pretzels.jpg,survey-text,8,63833,29
testing,car,2591.7999999946915,familiar,far,sedan.jpg,firetruck.jpg,survey-text,9,66928,29
testing,NA,3134.090000006836,NA,NA,NA,NA,html-button-response,10,70563,29
testing,sitting,5109.355000022333,tangram,far,G1.jpg,N1.jpg,survey-text,11,76175,29
testing,running,5571.949999954086,tangram,far,A1.jpg,D1.jpg,survey-text,12,82249,29
testing,jumping,3392.4300000071526,tangram,far,E1.jpg,C2.jpg,survey-text,13,86145,29
testing,running,5035.269999993034,tangram,far,F1.jpg,C1.jpg,survey-text,14,91682,29
testing,serving,3220.835000043735,tangram,far,I1.jpg,R1.jpg,survey-text,15,95405,29
testing,holding,3677.514999988489,tangram,far,H1.jpg,A2.jpg,survey-text,16,99585,29
testing,dejected,5153.0849999981,tangram,far,B1.jpg,O1.jpg,survey-text,17,105240,29
testing,pleading,3552.475000033155,tangram,far,K1.jpg,V1.jpg,survey-text,18,109296,29
testing,NA,2773.849999997765,NA,NA,NA,NA,html-button-response,19,112571,29
testing,sparrow,5351.480000012089,familiar,close,sparrow.jpg,eagle.jpg,survey-text,20,118425,29
testing,goldfish,3937.035000009928,familiar,close,goldfish.jpg,swordfish.jpg,survey-text,21,122865,29
testing,sedan,6088.174999982584,familiar,close,sedan.jpg,sportscar.jpg,survey-text,22,129455,29
testing,shirt,12541.685000003781,familiar,close,poloshirt.jpg,hawaiishirt.jpg,survey-text,23,142500,29
testing,german,4977.019999991171,familiar,close,germanshepherd.jpg,pug.jpg,survey-text,24,147979,29
testing,table,4569.359999964945,familiar,close,diningtable.jpg,picnictable.jpg,survey-text,25,153051,29
testing,chocolate,5550.4999999538995,familiar,close,mnms.jpg,gummybears.jpg,survey-text,26,159105,29
testing,grizzly,5591.245000017807,familiar,close,grizzlybear.jpg,polarbear.jpg,survey-text,27,165199,29
testing,NA,1116.9499999959953,NA,NA,NA,NA,html-button-response,28,166817,29
testing,table,2657.390000007581,familiar,isolated,diningtable.jpg,picnictable.jpg,survey-text,29,169977,29
