"","iterationName","wID","aID","utterance","rt","target_type","competitor_type","target","foil","trial_type","trial_index","time_elapsed","utt_length","clean_utt"
"1","pilot2",1,"3CFJTT4SXUF1D2GSR28PLOG55D4I71","blue shirt",8417.69500001101,"familiar","isolated","poloshirt.jpg","hawaiishirt.jpg","survey-text",3,41912,10,"blueshirt"
"2","pilot2",1,"3CFJTT4SXUF1D2GSR28PLOG55D4I71","bear",4069.31000002078,"familiar","isolated","grizzlybear.jpg","polarbear.jpg","survey-text",4,46484,4,"bear"
"3","pilot2",1,"3CFJTT4SXUF1D2GSR28PLOG55D4I71","table",5345.83499998553,"familiar","isolated","diningtable.jpg","picnictable.jpg","survey-text",5,52340,5,"table"
"4","pilot2",1,"3CFJTT4SXUF1D2GSR28PLOG55D4I71","german shepard",7552.9900000256,"familiar","isolated","germanshepherd.jpg","pug.jpg","survey-text",6,60410,14,"germanshepard"
"5","pilot2",1,"3CFJTT4SXUF1D2GSR28PLOG55D4I71","bird",3847.96499999357,"familiar","isolated","sparrow.jpg","eagle.jpg","survey-text",7,64759,4,"bird"
"6","pilot2",1,"3CFJTT4SXUF1D2GSR28PLOG55D4I71","candy",4228.04000001634,"familiar","isolated","mnms.jpg","gummybears.jpg","survey-text",8,69489,5,"candy"
"7","pilot2",1,"3CFJTT4SXUF1D2GSR28PLOG55D4I71","goldfish",5104.13500000141,"familiar","isolated","goldfish.jpg","swordfish.jpg","survey-text",9,75095,8,"goldfish"
"8","pilot2",1,"3CFJTT4SXUF1D2GSR28PLOG55D4I71","sedan",8618.15500000375,"familiar","isolated","sedan.jpg","sportscar.jpg","survey-text",10,84215,5,"sedan"
"9","pilot2",1,"3CFJTT4SXUF1D2GSR28PLOG55D4I71","kicking",7656.71999999904,"tangram","far","tangram-48.jpg","D1.jpg","survey-text",12,100567,7,"kick"
"10","pilot2",1,"3CFJTT4SXUF1D2GSR28PLOG55D4I71","high kick",8973.52999998839,"tangram","far","tangram-164.jpg","tangram-64.jpg","survey-text",13,110044,9,"highkick"
"11","pilot2",1,"3CFJTT4SXUF1D2GSR28PLOG55D4I71","triangle dance",12892.5900000031,"tangram","far","tangram-90.jpg","tangram-120.jpg","survey-text",14,123440,14,"triangledance"
"12","pilot2",1,"3CFJTT4SXUF1D2GSR28PLOG55D4I71","beggar",8926.529999997,"tangram","far","H1.jpg","tangram-8.jpg","survey-text",15,132870,6,"beggar"
"13","pilot2",1,"3CFJTT4SXUF1D2GSR28PLOG55D4I71","overhead throw",11590.8200000122,"tangram","far","A2.jpg","C1.jpg","survey-text",16,144968,14,"overheadthrow"
"14","pilot2",1,"3CFJTT4SXUF1D2GSR28PLOG55D4I71","sneaky sprint",7184.65000001015,"tangram","far","tangram-55.jpg","tangram-143.jpg","survey-text",17,152655,13,"sneakysprint"
"15","pilot2",1,"3CFJTT4SXUF1D2GSR28PLOG55D4I71","dejected walk",7025.66000001389,"tangram","far","B1.jpg","tangram-4.jpg","survey-text",18,160183,13,"dejectwalk"
"16","pilot2",1,"3CFJTT4SXUF1D2GSR28PLOG55D4I71","triangle sprinting",16845.9849999927,"tangram","far","tangram-67.jpg","G1.jpg","survey-text",19,177531,18,"trianglesprint"
"17","pilot2",1,"3CFJTT4SXUF1D2GSR28PLOG55D4I71","blue polo",7947.95000000158,"familiar","close","poloshirt.jpg","hawaiishirt.jpg","survey-text",21,192201,9,"bluepolo"
"18","pilot2",1,"3CFJTT4SXUF1D2GSR28PLOG55D4I71","blue sedan",5616.97000000277,"familiar","close","sedan.jpg","sportscar.jpg","survey-text",22,198323,10,"bluesedan"
"19","pilot2",1,"3CFJTT4SXUF1D2GSR28PLOG55D4I71","brown bear",5187.5149999978,"familiar","close","grizzlybear.jpg","polarbear.jpg","survey-text",23,204013,10,"brownbear"
"20","pilot2",1,"3CFJTT4SXUF1D2GSR28PLOG55D4I71","coated candies",11335.4450000043,"familiar","close","mnms.jpg","gummybears.jpg","survey-text",24,215854,14,"coatcandy"
"21","pilot2",1,"3CFJTT4SXUF1D2GSR28PLOG55D4I71","small bird",6308.45000001136,"familiar","close","sparrow.jpg","eagle.jpg","survey-text",25,222674,10,"smallbird"
"22","pilot2",1,"3CFJTT4SXUF1D2GSR28PLOG55D4I71","wide table",6811.95999999181,"familiar","close","diningtable.jpg","picnictable.jpg","survey-text",26,229989,10,"widetable"
"23","pilot2",1,"3CFJTT4SXUF1D2GSR28PLOG55D4I71","german shepard",6088.60000001732,"familiar","close","germanshepherd.jpg","pug.jpg","survey-text",27,236580,14,"germanshepard"
"24","pilot2",1,"3CFJTT4SXUF1D2GSR28PLOG55D4I71","goldfish",4066.54499997967,"familiar","close","goldfish.jpg","swordfish.jpg","survey-text",28,241149,8,"goldfish"
"25","pilot2",1,"3CFJTT4SXUF1D2GSR28PLOG55D4I71","german shepard",5146.01500000572,"familiar","far","germanshepherd.jpg","cow.jpg","survey-text",30,249839,14,"germanshepard"
"26","pilot2",1,"3CFJTT4SXUF1D2GSR28PLOG55D4I71","coated candies",4435.72999999742,"familiar","far","mnms.jpg","pretzels.jpg","survey-text",31,254782,14,"coatcandy"
"27","pilot2",1,"3CFJTT4SXUF1D2GSR28PLOG55D4I71","wide table",4521.02499999455,"familiar","far","diningtable.jpg","wardrobe.jpg","survey-text",32,259805,10,"widetable"
"28","pilot2",1,"3CFJTT4SXUF1D2GSR28PLOG55D4I71","brown bear",4178.00000001444,"familiar","far","grizzlybear.jpg","lion.jpg","survey-text",33,264492,10,"brownbear"
"29","pilot2",1,"3CFJTT4SXUF1D2GSR28PLOG55D4I71","goldfish",2415.47000000719,"familiar","far","goldfish.jpg","iguana.jpg","survey-text",34,267410,8,"goldfish"
"30","pilot2",1,"3CFJTT4SXUF1D2GSR28PLOG55D4I71","blue sedan",6299.79499999899,"familiar","far","sedan.jpg","firetruck.jpg","survey-text",35,274214,10,"bluesedan"
"31","pilot2",1,"3CFJTT4SXUF1D2GSR28PLOG55D4I71","blue polo",5251.17499998305,"familiar","far","poloshirt.jpg","dress.jpg","survey-text",36,279968,9,"bluepolo"
"32","pilot2",1,"3CFJTT4SXUF1D2GSR28PLOG55D4I71","small bird",3031.84500001953,"familiar","far","sparrow.jpg","squirrel.jpg","survey-text",37,283510,10,"smallbird"
"33","pilot2",1,"3CFJTT4SXUF1D2GSR28PLOG55D4I71","sneaky sprint",5533.11499999836,"tangram","isolated","tangram-55.jpg","N1.jpg","survey-text",39,292614,13,"sneakysprint"
"34","pilot2",1,"3CFJTT4SXUF1D2GSR28PLOG55D4I71","squat kick",19770.909999992,"tangram","isolated","tangram-164.jpg","tangram-183.jpg","survey-text",40,312894,10,"squatkick"
"35","pilot2",1,"3CFJTT4SXUF1D2GSR28PLOG55D4I71","overhead throw",4076.73500000965,"tangram","isolated","A2.jpg","tangram-99.jpg","survey-text",41,317473,14,"overheadthrow"
"36","pilot2",1,"3CFJTT4SXUF1D2GSR28PLOG55D4I71","triangle sprinting",6154.8049999983,"tangram","isolated","tangram-67.jpg","tangram-32.jpg","survey-text",42,324131,18,"trianglesprint"
"37","pilot2",1,"3CFJTT4SXUF1D2GSR28PLOG55D4I71","dejected walk",2250.26000000071,"tangram","isolated","B1.jpg","P1.jpg","survey-text",43,326883,13,"dejectwalk"
"38","pilot2",1,"3CFJTT4SXUF1D2GSR28PLOG55D4I71","triangle walking",20119.2700000247,"tangram","isolated","tangram-90.jpg","tangram-81.jpg","survey-text",44,347506,16,"trianglewalk"
"39","pilot2",1,"3CFJTT4SXUF1D2GSR28PLOG55D4I71","horizontal kick",10510.9100000118,"tangram","isolated","tangram-48.jpg","tangram-187.jpg","survey-text",45,358522,15,"horizontalkick"
"40","pilot2",1,"3CFJTT4SXUF1D2GSR28PLOG55D4I71","beggar",5826.70000000508,"tangram","isolated","H1.jpg","I1.jpg","survey-text",46,364852,6,"beggar"
"41","pilot2",1,"3CFJTT4SXUF1D2GSR28PLOG55D4I71","triangle walking",6207.12499998626,"tangram","close","tangram-90.jpg","tangram-81.jpg","survey-text",48,376555,16,"trianglewalk"
"42","pilot2",1,"3CFJTT4SXUF1D2GSR28PLOG55D4I71","triangle sprinting",10402.4300000165,"tangram","close","tangram-67.jpg","tangram-32.jpg","survey-text",49,387465,18,"trianglesprint"
"43","pilot2",1,"3CFJTT4SXUF1D2GSR28PLOG55D4I71","horizontal kick",6297.13500000071,"tangram","close","tangram-48.jpg","tangram-187.jpg","survey-text",50,394272,15,"horizontalkick"
"44","pilot2",1,"3CFJTT4SXUF1D2GSR28PLOG55D4I71","beggar",4920.60499999207,"tangram","close","H1.jpg","I1.jpg","survey-text",51,399703,6,"beggar"
"45","pilot2",1,"3CFJTT4SXUF1D2GSR28PLOG55D4I71","overhead throw",4306.96499999613,"tangram","close","A2.jpg","tangram-99.jpg","survey-text",52,404513,14,"overheadthrow"
"46","pilot2",1,"3CFJTT4SXUF1D2GSR28PLOG55D4I71","dejected walk",4674.92000001948,"tangram","close","B1.jpg","P1.jpg","survey-text",53,409690,13,"dejectwalk"
"47","pilot2",1,"3CFJTT4SXUF1D2GSR28PLOG55D4I71","sneaky sprint",4420.59500000323,"tangram","close","tangram-55.jpg","N1.jpg","survey-text",54,414613,13,"sneakysprint"
"48","pilot2",1,"3CFJTT4SXUF1D2GSR28PLOG55D4I71","horizontal kick",6414.81499999645,"tangram","close","tangram-164.jpg","tangram-183.jpg","survey-text",55,421545,15,"horizontalkick"
"49","pilot2",2,"3TAYZSBPLMXJLFMIQ2L8TZ5K3082SV","golden fish",5702.46000005864,"familiar","close","goldfish.jpg","swordfish.jpg","survey-text",3,23047,11,"goldenfish"
"50","pilot2",2,"3TAYZSBPLMXJLFMIQ2L8TZ5K3082SV","plain t shirt",7215.34999995492,"familiar","close","poloshirt.jpg","hawaiishirt.jpg","survey-text",4,30779,13,"plaintshirt"
"51","pilot2",2,"3TAYZSBPLMXJLFMIQ2L8TZ5K3082SV","blue car",8118.79500001669,"familiar","close","sedan.jpg","sportscar.jpg","survey-text",5,39423,8,"bluecar"
"52","pilot2",2,"3TAYZSBPLMXJLFMIQ2L8TZ5K3082SV","german shephard",5192.17499997467,"familiar","close","germanshepherd.jpg","pug.jpg","survey-text",6,45127,15,"germanshephard"
"53","pilot2",2,"3TAYZSBPLMXJLFMIQ2L8TZ5K3082SV","mnms",3622.29499989189,"familiar","close","mnms.jpg","gummybears.jpg","survey-text",7,49264,4,"mnms"
"54","pilot2",2,"3TAYZSBPLMXJLFMIQ2L8TZ5K3082SV","wild bear",7117.79999989085,"familiar","close","grizzlybear.jpg","polarbear.jpg","survey-text",8,56896,9,"wildbear"
"55","pilot2",2,"3TAYZSBPLMXJLFMIQ2L8TZ5K3082SV","pigeon",9273.65500014275,"familiar","close","sparrow.jpg","eagle.jpg","survey-text",9,66683,6,"pigeon"
"56","pilot2",2,"3TAYZSBPLMXJLFMIQ2L8TZ5K3082SV","table",4445.86999993771,"familiar","close","diningtable.jpg","picnictable.jpg","survey-text",10,71644,5,"table"
"57","pilot2",2,"3TAYZSBPLMXJLFMIQ2L8TZ5K3082SV","bird",3285.0150000304,"familiar","far","sparrow.jpg","squirrel.jpg","survey-text",12,78254,4,"bird"
"58","pilot2",2,"3TAYZSBPLMXJLFMIQ2L8TZ5K3082SV","dog",2850.5600001663,"familiar","far","germanshepherd.jpg","cow.jpg","survey-text",13,81617,3,"dog"
"59","pilot2",2,"3TAYZSBPLMXJLFMIQ2L8TZ5K3082SV","mnms",3000.6150000263,"familiar","far","mnms.jpg","pretzels.jpg","survey-text",14,85130,4,"mnms"
"60","pilot2",2,"3TAYZSBPLMXJLFMIQ2L8TZ5K3082SV","table",2998.20000003092,"familiar","far","diningtable.jpg","wardrobe.jpg","survey-text",15,88646,5,"table"
"61","pilot2",2,"3TAYZSBPLMXJLFMIQ2L8TZ5K3082SV","men tshirt",4522.29999983683,"familiar","far","poloshirt.jpg","dress.jpg","survey-text",16,93690,10,"mantshirt"
"62","pilot2",2,"3TAYZSBPLMXJLFMIQ2L8TZ5K3082SV","car",3321.07499986887,"familiar","far","sedan.jpg","firetruck.jpg","survey-text",17,97543,3,"car"
"63","pilot2",2,"3TAYZSBPLMXJLFMIQ2L8TZ5K3082SV","bear",3108.44499990344,"familiar","far","grizzlybear.jpg","lion.jpg","survey-text",18,101176,4,"bear"
"64","pilot2",2,"3TAYZSBPLMXJLFMIQ2L8TZ5K3082SV","fish",3265.38999984041,"familiar","far","goldfish.jpg","iguana.jpg","survey-text",19,104956,4,"fish"
"65","pilot2",2,"3TAYZSBPLMXJLFMIQ2L8TZ5K3082SV","mnms",2594.93500017561,"familiar","isolated","mnms.jpg","gummybears.jpg","survey-text",21,111385,4,"mnms"
"66","pilot2",2,"3TAYZSBPLMXJLFMIQ2L8TZ5K3082SV","dog",2299.79999992065,"familiar","isolated","germanshepherd.jpg","pug.jpg","survey-text",22,114215,3,"dog"
"67","pilot2",2,"3TAYZSBPLMXJLFMIQ2L8TZ5K3082SV","tshirt",5813.6199999135,"familiar","isolated","poloshirt.jpg","hawaiishirt.jpg","survey-text",23,120541,6,"tshirt"
"68","pilot2",2,"3TAYZSBPLMXJLFMIQ2L8TZ5K3082SV","table",3719.29499995895,"familiar","isolated","diningtable.jpg","picnictable.jpg","survey-text",24,124777,5,"table"
"69","pilot2",2,"3TAYZSBPLMXJLFMIQ2L8TZ5K3082SV","car",1886.25500001945,"familiar","isolated","sedan.jpg","sportscar.jpg","survey-text",25,127176,3,"car"
"70","pilot2",2,"3TAYZSBPLMXJLFMIQ2L8TZ5K3082SV","fish",2516.09500008635,"familiar","isolated","goldfish.jpg","swordfish.jpg","survey-text",26,130216,4,"fish"
"71","pilot2",2,"3TAYZSBPLMXJLFMIQ2L8TZ5K3082SV","bear",2570.74499991722,"familiar","isolated","grizzlybear.jpg","polarbear.jpg","survey-text",27,133297,4,"bear"
"72","pilot2",2,"3TAYZSBPLMXJLFMIQ2L8TZ5K3082SV","bird",2577.724999981,"familiar","isolated","sparrow.jpg","eagle.jpg","survey-text",28,136396,4,"bird"
"73","pilot2",2,"3TAYZSBPLMXJLFMIQ2L8TZ5K3082SV","walking",2338.24499999173,"tangram","close","B1.jpg","P1.jpg","survey-text",30,141757,7,"walk"
"74","pilot2",2,"3TAYZSBPLMXJLFMIQ2L8TZ5K3082SV","rnning",2027.14999997988,"tangram","close","tangram-55.jpg","N1.jpg","survey-text",31,144296,6,"rnning"
"75","pilot2",2,"3TAYZSBPLMXJLFMIQ2L8TZ5K3082SV","jaywalking",7393.66999990307,"tangram","close","tangram-48.jpg","tangram-187.jpg","survey-text",32,152216,10,"jaywalking"
"76","pilot2",2,"3TAYZSBPLMXJLFMIQ2L8TZ5K3082SV","holding pot",5116.82000011206,"tangram","close","H1.jpg","I1.jpg","survey-text",33,157846,11,"holdpot"
"77","pilot2",2,"3TAYZSBPLMXJLFMIQ2L8TZ5K3082SV","falling",4146.79999998771,"tangram","close","tangram-164.jpg","tangram-183.jpg","survey-text",34,162511,7,"fall"
"78","pilot2",2,"3TAYZSBPLMXJLFMIQ2L8TZ5K3082SV","running",5012.8450000193,"tangram","close","tangram-67.jpg","tangram-32.jpg","survey-text",35,168036,7,"run"
"79","pilot2",2,"3TAYZSBPLMXJLFMIQ2L8TZ5K3082SV","walking backwards",3723.19000004791,"tangram","close","A2.jpg","tangram-99.jpg","survey-text",36,172277,17,"walkbackwards"
"80","pilot2",2,"3TAYZSBPLMXJLFMIQ2L8TZ5K3082SV","walking fast",4954.81000002474,"tangram","close","tangram-90.jpg","tangram-81.jpg","survey-text",37,177753,12,"walkfast"
"81","pilot2",2,"3TAYZSBPLMXJLFMIQ2L8TZ5K3082SV","running",2852.50000003725,"tangram","isolated","tangram-55.jpg","N1.jpg","survey-text",39,183478,7,"run"
"82","pilot2",2,"3TAYZSBPLMXJLFMIQ2L8TZ5K3082SV","walking back",3046.7949998565,"tangram","isolated","A2.jpg","tangram-99.jpg","survey-text",40,187044,12,"walkback"
"83","pilot2",2,"3TAYZSBPLMXJLFMIQ2L8TZ5K3082SV","walking slow",3509.37499990687,"tangram","isolated","B1.jpg","P1.jpg","survey-text",41,191079,12,"walkslow"
"84","pilot2",2,"3TAYZSBPLMXJLFMIQ2L8TZ5K3082SV","falling",2806.63500004448,"tangram","isolated","tangram-164.jpg","tangram-183.jpg","survey-text",42,194398,7,"fall"
"85","pilot2",2,"3TAYZSBPLMXJLFMIQ2L8TZ5K3082SV","holding something",4185.68999995477,"tangram","isolated","H1.jpg","I1.jpg","survey-text",43,199100,17,"holdsomething"
"86","pilot2",2,"3TAYZSBPLMXJLFMIQ2L8TZ5K3082SV","jaywalking",3965.77999996953,"tangram","isolated","tangram-48.jpg","tangram-187.jpg","survey-text",44,203578,10,"jaywalking"
"87","pilot2",2,"3TAYZSBPLMXJLFMIQ2L8TZ5K3082SV","running slow",10077.519999817,"tangram","isolated","tangram-90.jpg","tangram-81.jpg","survey-text",45,214187,12,"runslow"
"88","pilot2",2,"3TAYZSBPLMXJLFMIQ2L8TZ5K3082SV","running",2185.24500005879,"tangram","isolated","tangram-67.jpg","tangram-32.jpg","survey-text",46,216904,7,"run"
"89","pilot2",2,"3TAYZSBPLMXJLFMIQ2L8TZ5K3082SV","running",5933.59500006773,"tangram","far","tangram-90.jpg","tangram-120.jpg","survey-text",48,225509,7,"run"
"90","pilot2",2,"3TAYZSBPLMXJLFMIQ2L8TZ5K3082SV","walking",4134.58500010893,"tangram","far","A2.jpg","C1.jpg","survey-text",49,230166,7,"walk"
"91","pilot2",2,"3TAYZSBPLMXJLFMIQ2L8TZ5K3082SV","walking",2649.50999990106,"tangram","far","tangram-48.jpg","D1.jpg","survey-text",50,233345,7,"walk"
"92","pilot2",2,"3TAYZSBPLMXJLFMIQ2L8TZ5K3082SV","runing",3767.13000005111,"tangram","far","tangram-67.jpg","G1.jpg","survey-text",51,237639,6,"runing"
"93","pilot2",2,"3TAYZSBPLMXJLFMIQ2L8TZ5K3082SV","holding something",4019.64500010945,"tangram","far","H1.jpg","tangram-8.jpg","survey-text",52,242179,17,"holdsomething"
"94","pilot2",2,"3TAYZSBPLMXJLFMIQ2L8TZ5K3082SV","falling",2916.13999987021,"tangram","far","tangram-164.jpg","tangram-64.jpg","survey-text",53,245610,7,"fall"
"95","pilot2",2,"3TAYZSBPLMXJLFMIQ2L8TZ5K3082SV","walking",2292.42000007071,"tangram","far","B1.jpg","tangram-4.jpg","survey-text",54,248424,7,"walk"
"96","pilot2",2,"3TAYZSBPLMXJLFMIQ2L8TZ5K3082SV","walking",2359.18499995023,"tangram","far","tangram-55.jpg","tangram-143.jpg","survey-text",55,251304,7,"walk"
"97","pilot2",4,"3F6KKYWMNCQ98CSTFVO3QOMIDN1DN5","round colorful",14641.7150000052,"familiar","close","mnms.jpg","gummybears.jpg","survey-text",3,90818,14,"roundcolorful"
"98","pilot2",4,"3F6KKYWMNCQ98CSTFVO3QOMIDN1DN5","four legs",11110.8799999929,"familiar","close","germanshepherd.jpg","pug.jpg","survey-text",4,102444,9,"fourleg"
"99","pilot2",4,"3F6KKYWMNCQ98CSTFVO3QOMIDN1DN5","four doors",17270.0349999941,"familiar","close","sedan.jpg","sportscar.jpg","survey-text",5,120225,10,"fourdoor"
"100","pilot2",4,"3F6KKYWMNCQ98CSTFVO3QOMIDN1DN5","brown beak",13823.2449999778,"familiar","close","sparrow.jpg","eagle.jpg","survey-text",6,134560,10,"brownbeak"
"101","pilot2",4,"3F6KKYWMNCQ98CSTFVO3QOMIDN1DN5","plain collared",9140.61999999103,"familiar","close","poloshirt.jpg","hawaiishirt.jpg","survey-text",7,144219,14,"plaincollar"
"102","pilot2",4,"3F6KKYWMNCQ98CSTFVO3QOMIDN1DN5","brown bear",10669.3499999819,"familiar","close","grizzlybear.jpg","polarbear.jpg","survey-text",8,155400,10,"brownbear"
"103","pilot2",4,"3F6KKYWMNCQ98CSTFVO3QOMIDN1DN5","gold fish",7800.95999999321,"familiar","close","goldfish.jpg","swordfish.jpg","survey-text",9,163715,9,"goldfish"
"104","pilot2",4,"3F6KKYWMNCQ98CSTFVO3QOMIDN1DN5","brown table",8906.74000000581,"familiar","close","diningtable.jpg","picnictable.jpg","survey-text",10,173144,11,"browntable"
"105","pilot2",4,"3F6KKYWMNCQ98CSTFVO3QOMIDN1DN5","light blue",8339.31999999913,"familiar","far","poloshirt.jpg","dress.jpg","survey-text",12,187366,10,"lightblue"
"106","pilot2",4,"3F6KKYWMNCQ98CSTFVO3QOMIDN1DN5","colorful",4210.21499999915,"familiar","far","mnms.jpg","pretzels.jpg","survey-text",13,192098,8,"colorful"
"107","pilot2",4,"3F6KKYWMNCQ98CSTFVO3QOMIDN1DN5","beak",2902.42499997839,"familiar","far","sparrow.jpg","squirrel.jpg","survey-text",14,195521,4,"beak"
"108","pilot2",4,"3F6KKYWMNCQ98CSTFVO3QOMIDN1DN5","orange fish",5519.19999998063,"familiar","far","goldfish.jpg","iguana.jpg","survey-text",15,201559,11,"orangefish"
"109","pilot2",4,"3F6KKYWMNCQ98CSTFVO3QOMIDN1DN5","four legs",4585.09000000777,"familiar","far","diningtable.jpg","wardrobe.jpg","survey-text",16,206650,9,"fourleg"
"110","pilot2",4,"3F6KKYWMNCQ98CSTFVO3QOMIDN1DN5","grizzly",6435.08499997552,"familiar","far","grizzlybear.jpg","lion.jpg","survey-text",17,213611,7,"grizzly"
"111","pilot2",4,"3F6KKYWMNCQ98CSTFVO3QOMIDN1DN5","bark",9099.02500000317,"familiar","far","germanshepherd.jpg","cow.jpg","survey-text",18,223222,4,"bark"
"112","pilot2",4,"3F6KKYWMNCQ98CSTFVO3QOMIDN1DN5","family car",10874.8999999953,"familiar","far","sedan.jpg","firetruck.jpg","survey-text",19,234613,10,"familycar"
"113","pilot2",4,"3F6KKYWMNCQ98CSTFVO3QOMIDN1DN5","collared shirt",9872.05499998527,"familiar","isolated","poloshirt.jpg","hawaiishirt.jpg","survey-text",21,248318,14,"collarshirt"
"114","pilot2",4,"3F6KKYWMNCQ98CSTFVO3QOMIDN1DN5","dining table",9344.39000001294,"familiar","isolated","diningtable.jpg","picnictable.jpg","survey-text",22,258183,12,"dinetable"
"115","pilot2",4,"3F6KKYWMNCQ98CSTFVO3QOMIDN1DN5","grizzly",4028.62499997718,"familiar","isolated","grizzlybear.jpg","polarbear.jpg","survey-text",23,262728,7,"grizzly"
"116","pilot2",4,"3F6KKYWMNCQ98CSTFVO3QOMIDN1DN5","small bird",10018.8000000198,"familiar","isolated","sparrow.jpg","eagle.jpg","survey-text",24,273257,10,"smallbird"
"117","pilot2",4,"3F6KKYWMNCQ98CSTFVO3QOMIDN1DN5","dog",10007.9550000082,"familiar","isolated","germanshepherd.jpg","pug.jpg","survey-text",25,283778,3,"dog"
"118","pilot2",4,"3F6KKYWMNCQ98CSTFVO3QOMIDN1DN5","candy",4800.27499998687,"familiar","isolated","mnms.jpg","gummybears.jpg","survey-text",26,289102,5,"candy"
"119","pilot2",4,"3F6KKYWMNCQ98CSTFVO3QOMIDN1DN5","fish",1863.1849999947,"familiar","isolated","goldfish.jpg","swordfish.jpg","survey-text",27,291477,4,"fish"
"120","pilot2",4,"3F6KKYWMNCQ98CSTFVO3QOMIDN1DN5","car",5062.93500002357,"familiar","isolated","sedan.jpg","sportscar.jpg","survey-text",28,297057,3,"car"
"121","pilot2",4,"3F6KKYWMNCQ98CSTFVO3QOMIDN1DN5","balanced square",21058.2299999951,"tangram","close","tangram-55.jpg","N1.jpg","survey-text",30,321802,15,"balancesquare"
"122","pilot2",4,"3F6KKYWMNCQ98CSTFVO3QOMIDN1DN5","looking down",4774.78499998688,"tangram","close","B1.jpg","P1.jpg","survey-text",31,327093,12,"lookdown"
"123","pilot2",4,"3F6KKYWMNCQ98CSTFVO3QOMIDN1DN5","square tilted",11758.3300000115,"tangram","close","tangram-48.jpg","tangram-187.jpg","survey-text",32,339365,13,"squaretilt"
"124","pilot2",4,"3F6KKYWMNCQ98CSTFVO3QOMIDN1DN5","upsidedown triangle",20875.5599999859,"tangram","close","tangram-90.jpg","tangram-81.jpg","survey-text",33,360761,19,"upsidedowntriangle"
"125","pilot2",4,"3F6KKYWMNCQ98CSTFVO3QOMIDN1DN5","balanced square",10989.5650000253,"tangram","close","tangram-164.jpg","tangram-183.jpg","survey-text",34,372274,15,"balancesquare"
"126","pilot2",4,"3F6KKYWMNCQ98CSTFVO3QOMIDN1DN5","running",6316.45500002196,"tangram","close","tangram-67.jpg","tangram-32.jpg","survey-text",35,379106,7,"run"
"127","pilot2",4,"3F6KKYWMNCQ98CSTFVO3QOMIDN1DN5","shapes compressed",11014.3000000098,"tangram","close","H1.jpg","I1.jpg","survey-text",36,390641,17,"shapecompress"
"128","pilot2",4,"3F6KKYWMNCQ98CSTFVO3QOMIDN1DN5","rhombus",6724.67500000494,"tangram","close","A2.jpg","tangram-99.jpg","survey-text",37,397887,7,"rhombus"
"129","pilot2",4,"3F6KKYWMNCQ98CSTFVO3QOMIDN1DN5","diamond head",9501.46499997936,"tangram","isolated","H1.jpg","I1.jpg","survey-text",39,410129,12,"diamondhead"
"130","pilot2",4,"3F6KKYWMNCQ98CSTFVO3QOMIDN1DN5","running",3199.35500001884,"tangram","isolated","tangram-55.jpg","N1.jpg","survey-text",40,413843,7,"run"
"131","pilot2",4,"3F6KKYWMNCQ98CSTFVO3QOMIDN1DN5","looking down",6462.51499999198,"tangram","isolated","B1.jpg","P1.jpg","survey-text",41,420820,12,"lookdown"
"132","pilot2",4,"3F6KKYWMNCQ98CSTFVO3QOMIDN1DN5","kicking",3310.55500000366,"tangram","isolated","tangram-48.jpg","tangram-187.jpg","survey-text",42,424653,7,"kick"
"133","pilot2",4,"3F6KKYWMNCQ98CSTFVO3QOMIDN1DN5","balanced square",13531.6600000078,"tangram","isolated","tangram-164.jpg","tangram-183.jpg","survey-text",43,438696,15,"balancesquare"
"134","pilot2",4,"3F6KKYWMNCQ98CSTFVO3QOMIDN1DN5","upsidedown triangle",4518.1750000047,"tangram","isolated","tangram-90.jpg","tangram-81.jpg","survey-text",44,443745,19,"upsidedowntriangle"
"135","pilot2",4,"3F6KKYWMNCQ98CSTFVO3QOMIDN1DN5","rhombus",6616.06000000029,"tangram","isolated","A2.jpg","tangram-99.jpg","survey-text",45,450885,7,"rhombus"
"136","pilot2",4,"3F6KKYWMNCQ98CSTFVO3QOMIDN1DN5","running",3550.53499998758,"tangram","isolated","tangram-67.jpg","tangram-32.jpg","survey-text",46,454948,7,"run"
"137","pilot2",4,"3F6KKYWMNCQ98CSTFVO3QOMIDN1DN5","running",5341.67000002344,"tangram","far","tangram-67.jpg","G1.jpg","survey-text",48,462782,7,"run"
"138","pilot2",4,"3F6KKYWMNCQ98CSTFVO3QOMIDN1DN5","rhombus",6910.97000002628,"tangram","far","A2.jpg","C1.jpg","survey-text",49,470218,7,"rhombus"
"139","pilot2",4,"3F6KKYWMNCQ98CSTFVO3QOMIDN1DN5","diamond head",5078.90500000212,"tangram","far","H1.jpg","tangram-8.jpg","survey-text",50,475812,12,"diamondhead"
"140","pilot2",4,"3F6KKYWMNCQ98CSTFVO3QOMIDN1DN5","kicking",4877.05499998992,"tangram","far","tangram-48.jpg","D1.jpg","survey-text",51,481210,7,"kick"
"141","pilot2",4,"3F6KKYWMNCQ98CSTFVO3QOMIDN1DN5","running",3016.08000000124,"tangram","far","tangram-55.jpg","tangram-143.jpg","survey-text",52,484738,7,"run"
"142","pilot2",4,"3F6KKYWMNCQ98CSTFVO3QOMIDN1DN5","upsidedown triangle",4325.79999999143,"tangram","far","tangram-90.jpg","tangram-120.jpg","survey-text",53,489576,19,"upsidedowntriangle"
"143","pilot2",4,"3F6KKYWMNCQ98CSTFVO3QOMIDN1DN5","looking down",2544.69000000972,"tangram","far","B1.jpg","tangram-4.jpg","survey-text",54,492642,12,"lookdown"
"144","pilot2",4,"3F6KKYWMNCQ98CSTFVO3QOMIDN1DN5","climbing",8714.52999999747,"tangram","far","tangram-164.jpg","tangram-64.jpg","survey-text",55,501874,8,"climb"
"145","pilot2",7,"3SPJ033422SGNXWZWTJPA2F2MSRYJL","person walking",7545,"tangram","isolated","B1.jpg","P1.jpg","survey-text",3,25449,14,"personwalk"
"146","pilot2",7,"3SPJ033422SGNXWZWTJPA2F2MSRYJL","woman skipping",16315,"tangram","isolated","A2.jpg","tangram-99.jpg","survey-text",4,42280,14,"womanskip"
"147","pilot2",7,"3SPJ033422SGNXWZWTJPA2F2MSRYJL","boy running",6720,"tangram","isolated","tangram-55.jpg","N1.jpg","survey-text",5,49521,11,"boyrun"
"148","pilot2",7,"3SPJ033422SGNXWZWTJPA2F2MSRYJL","man dancing",6165,"tangram","isolated","tangram-90.jpg","tangram-81.jpg","survey-text",6,56201,11,"mandance"
"149","pilot2",7,"3SPJ033422SGNXWZWTJPA2F2MSRYJL","man running",6630,"tangram","isolated","tangram-67.jpg","tangram-32.jpg","survey-text",7,63345,11,"manrun"
"150","pilot2",7,"3SPJ033422SGNXWZWTJPA2F2MSRYJL","man dancing",7181,"tangram","isolated","tangram-48.jpg","tangram-187.jpg","survey-text",8,71033,11,"mandance"
"151","pilot2",7,"3SPJ033422SGNXWZWTJPA2F2MSRYJL","boy dancing",5832,"tangram","isolated","tangram-164.jpg","tangram-183.jpg","survey-text",9,77376,11,"boydance"
"152","pilot2",7,"3SPJ033422SGNXWZWTJPA2F2MSRYJL","priest",5460,"tangram","isolated","H1.jpg","I1.jpg","survey-text",10,83345,6,"priest"
"153","pilot2",7,"3SPJ033422SGNXWZWTJPA2F2MSRYJL","cheap car",12785,"familiar","close","sedan.jpg","sportscar.jpg","survey-text",12,103041,9,"cheapcar"
"154","pilot2",7,"3SPJ033422SGNXWZWTJPA2F2MSRYJL","indoor table",6643,"familiar","close","diningtable.jpg","picnictable.jpg","survey-text",13,110209,12,"indoortable"
"155","pilot2",7,"3SPJ033422SGNXWZWTJPA2F2MSRYJL","grizzly",6598,"familiar","close","grizzlybear.jpg","polarbear.jpg","survey-text",14,117313,7,"grizzly"
"156","pilot2",7,"3SPJ033422SGNXWZWTJPA2F2MSRYJL","goldfish",5370,"familiar","close","goldfish.jpg","swordfish.jpg","survey-text",15,123200,8,"goldfish"
"157","pilot2",7,"3SPJ033422SGNXWZWTJPA2F2MSRYJL","finch",17997,"familiar","close","sparrow.jpg","eagle.jpg","survey-text",16,141713,5,"finch"
"158","pilot2",7,"3SPJ033422SGNXWZWTJPA2F2MSRYJL","polo",5491,"familiar","close","poloshirt.jpg","hawaiishirt.jpg","survey-text",17,147713,4,"polo"
"159","pilot2",7,"3SPJ033422SGNXWZWTJPA2F2MSRYJL","chocolate",6851,"familiar","close","mnms.jpg","gummybears.jpg","survey-text",18,155088,9,"chocolate"
"160","pilot2",7,"3SPJ033422SGNXWZWTJPA2F2MSRYJL","german",6149,"familiar","close","germanshepherd.jpg","pug.jpg","survey-text",19,161745,6,"german"
"161","pilot2",7,"3SPJ033422SGNXWZWTJPA2F2MSRYJL","priest",12913,"tangram","far","H1.jpg","tangram-8.jpg","survey-text",21,181649,6,"priest"
"162","pilot2",7,"3SPJ033422SGNXWZWTJPA2F2MSRYJL","kicking",5333,"tangram","far","tangram-48.jpg","D1.jpg","survey-text",22,187488,7,"kick"
"163","pilot2",7,"3SPJ033422SGNXWZWTJPA2F2MSRYJL","legs apart",5820,"tangram","far","tangram-90.jpg","tangram-120.jpg","survey-text",23,193817,10,"legapart"
"164","pilot2",7,"3SPJ033422SGNXWZWTJPA2F2MSRYJL","walking",7955,"tangram","far","B1.jpg","tangram-4.jpg","survey-text",24,202281,7,"walk"
"165","pilot2",7,"3SPJ033422SGNXWZWTJPA2F2MSRYJL","skipping",6406,"tangram","far","A2.jpg","C1.jpg","survey-text",25,209208,8,"skip"
"166","pilot2",7,"3SPJ033422SGNXWZWTJPA2F2MSRYJL","running",4410,"tangram","far","tangram-67.jpg","G1.jpg","survey-text",26,214137,7,"run"
"167","pilot2",7,"3SPJ033422SGNXWZWTJPA2F2MSRYJL","high kick",6656,"tangram","far","tangram-164.jpg","tangram-64.jpg","survey-text",27,221313,9,"highkick"
"168","pilot2",7,"3SPJ033422SGNXWZWTJPA2F2MSRYJL","runner",4255,"tangram","far","tangram-55.jpg","tangram-143.jpg","survey-text",28,226088,6,"runner"
"169","pilot2",7,"3SPJ033422SGNXWZWTJPA2F2MSRYJL","goldfish",3879,"familiar","far","goldfish.jpg","iguana.jpg","survey-text",30,232545,8,"goldfish"
"170","pilot2",7,"3SPJ033422SGNXWZWTJPA2F2MSRYJL","dog",5046,"familiar","far","germanshepherd.jpg","cow.jpg","survey-text",31,238113,3,"dog"
"171","pilot2",7,"3SPJ033422SGNXWZWTJPA2F2MSRYJL","bear",2190,"familiar","far","grizzlybear.jpg","lion.jpg","survey-text",32,240817,4,"bear"
"172","pilot2",7,"3SPJ033422SGNXWZWTJPA2F2MSRYJL","table",1849,"familiar","far","diningtable.jpg","wardrobe.jpg","survey-text",33,243177,5,"table"
"173","pilot2",7,"3SPJ033422SGNXWZWTJPA2F2MSRYJL","shirt",1617,"familiar","far","poloshirt.jpg","dress.jpg","survey-text",34,245304,5,"shirt"
"174","pilot2",7,"3SPJ033422SGNXWZWTJPA2F2MSRYJL","car",1577,"familiar","far","sedan.jpg","firetruck.jpg","survey-text",35,247401,3,"car"
"175","pilot2",7,"3SPJ033422SGNXWZWTJPA2F2MSRYJL","candy",2850,"familiar","far","mnms.jpg","pretzels.jpg","survey-text",36,250777,5,"candy"
"176","pilot2",7,"3SPJ033422SGNXWZWTJPA2F2MSRYJL","bird",2817,"familiar","far","sparrow.jpg","squirrel.jpg","survey-text",37,254105,4,"bird"
"177","pilot2",7,"3SPJ033422SGNXWZWTJPA2F2MSRYJL","goldfish",3333,"familiar","isolated","goldfish.jpg","swordfish.jpg","survey-text",39,261921,8,"goldfish"
"178","pilot2",7,"3SPJ033422SGNXWZWTJPA2F2MSRYJL","candy",1958,"familiar","isolated","mnms.jpg","gummybears.jpg","survey-text",40,264385,5,"candy"
"179","pilot2",7,"3SPJ033422SGNXWZWTJPA2F2MSRYJL","car",1302,"familiar","isolated","sedan.jpg","sportscar.jpg","survey-text",41,266209,3,"car"
"180","pilot2",7,"3SPJ033422SGNXWZWTJPA2F2MSRYJL","table",1794,"familiar","isolated","diningtable.jpg","picnictable.jpg","survey-text",42,268521,5,"table"
"181","pilot2",7,"3SPJ033422SGNXWZWTJPA2F2MSRYJL","shirt",1695,"familiar","isolated","poloshirt.jpg","hawaiishirt.jpg","survey-text",43,270721,5,"shirt"
"182","pilot2",7,"3SPJ033422SGNXWZWTJPA2F2MSRYJL","dog",1734,"familiar","isolated","germanshepherd.jpg","pug.jpg","survey-text",44,272961,3,"dog"
"183","pilot2",7,"3SPJ033422SGNXWZWTJPA2F2MSRYJL","bird",1661,"familiar","isolated","sparrow.jpg","eagle.jpg","survey-text",45,275129,4,"bird"
"184","pilot2",7,"3SPJ033422SGNXWZWTJPA2F2MSRYJL","bear",1395,"familiar","isolated","grizzlybear.jpg","polarbear.jpg","survey-text",46,277041,4,"bear"
"185","pilot2",7,"3SPJ033422SGNXWZWTJPA2F2MSRYJL","hurdler",17838,"tangram","close","tangram-48.jpg","tangram-187.jpg","survey-text",48,299785,7,"hurdler"
"186","pilot2",7,"3SPJ033422SGNXWZWTJPA2F2MSRYJL","sad man",6471,"tangram","close","B1.jpg","P1.jpg","survey-text",49,306770,7,"sadman"
"187","pilot2",7,"3SPJ033422SGNXWZWTJPA2F2MSRYJL","back straight",8353,"tangram","close","H1.jpg","I1.jpg","survey-text",50,315633,13,"backstraight"
"188","pilot2",7,"3SPJ033422SGNXWZWTJPA2F2MSRYJL","triangle body",12610,"tangram","close","tangram-90.jpg","tangram-81.jpg","survey-text",51,328769,13,"trianglebody"
"189","pilot2",7,"3SPJ033422SGNXWZWTJPA2F2MSRYJL","flying kite",5771,"tangram","close","A2.jpg","tangram-99.jpg","survey-text",52,335050,11,"flykite"
"190","pilot2",7,"3SPJ033422SGNXWZWTJPA2F2MSRYJL","sitting flat",15510,"tangram","close","tangram-164.jpg","tangram-183.jpg","survey-text",53,351065,12,"sitflat"
"191","pilot2",7,"3SPJ033422SGNXWZWTJPA2F2MSRYJL","slower runner",13797,"tangram","close","tangram-55.jpg","N1.jpg","survey-text",54,365385,13,"slowrunner"
"192","pilot2",7,"3SPJ033422SGNXWZWTJPA2F2MSRYJL","no arms",6637,"tangram","close","tangram-67.jpg","tangram-32.jpg","survey-text",55,372546,7,"noarm"
"193","pilot2",9,"3OWEPKL08A1TR3RJOILHQWCMRC97NH","human",9884,"tangram","far","tangram-67.jpg","G1.jpg","survey-text",3,26854,5,"human"
"194","pilot2",9,"3OWEPKL08A1TR3RJOILHQWCMRC97NH","teacher",7987,"tangram","far","H1.jpg","tangram-8.jpg","survey-text",4,35360,7,"teacher"
"195","pilot2",9,"3OWEPKL08A1TR3RJOILHQWCMRC97NH","sport",3873,"tangram","far","tangram-55.jpg","tangram-143.jpg","survey-text",5,39745,5,"sport"
"196","pilot2",9,"3OWEPKL08A1TR3RJOILHQWCMRC97NH","walk",3855,"tangram","far","B1.jpg","tangram-4.jpg","survey-text",6,44112,4,"walk"
"197","pilot2",9,"3OWEPKL08A1TR3RJOILHQWCMRC97NH","sit",4065,"tangram","far","tangram-164.jpg","tangram-64.jpg","survey-text",7,48697,3,"sit"
"198","pilot2",9,"3OWEPKL08A1TR3RJOILHQWCMRC97NH","praying",6315,"tangram","far","A2.jpg","C1.jpg","survey-text",8,55528,7,"pray"
"199","pilot2",9,"3OWEPKL08A1TR3RJOILHQWCMRC97NH","kick",3014,"tangram","far","tangram-48.jpg","D1.jpg","survey-text",9,59056,4,"kick"
"200","pilot2",9,"3OWEPKL08A1TR3RJOILHQWCMRC97NH","joy",5874,"tangram","far","tangram-90.jpg","tangram-120.jpg","survey-text",10,65432,3,"joy"
"201","pilot2",9,"3OWEPKL08A1TR3RJOILHQWCMRC97NH","bear",5007,"familiar","isolated","grizzlybear.jpg","polarbear.jpg","survey-text",12,74729,4,"bear"
"202","pilot2",9,"3OWEPKL08A1TR3RJOILHQWCMRC97NH","car",2396,"familiar","isolated","sedan.jpg","sportscar.jpg","survey-text",13,77641,3,"car"
"203","pilot2",9,"3OWEPKL08A1TR3RJOILHQWCMRC97NH","table",2966,"familiar","isolated","diningtable.jpg","picnictable.jpg","survey-text",14,81113,5,"table"
"204","pilot2",9,"3OWEPKL08A1TR3RJOILHQWCMRC97NH","candy",2656,"familiar","isolated","mnms.jpg","gummybears.jpg","survey-text",15,84273,5,"candy"
"205","pilot2",9,"3OWEPKL08A1TR3RJOILHQWCMRC97NH","bird",6586,"familiar","isolated","sparrow.jpg","eagle.jpg","survey-text",16,91368,4,"bird"
"206","pilot2",9,"3OWEPKL08A1TR3RJOILHQWCMRC97NH","fish",2909,"familiar","isolated","goldfish.jpg","swordfish.jpg","survey-text",17,94800,4,"fish"
"207","pilot2",9,"3OWEPKL08A1TR3RJOILHQWCMRC97NH","shirt",4093,"familiar","isolated","poloshirt.jpg","hawaiishirt.jpg","survey-text",18,99400,5,"shirt"
"208","pilot2",9,"3OWEPKL08A1TR3RJOILHQWCMRC97NH","dog",2798,"familiar","isolated","germanshepherd.jpg","pug.jpg","survey-text",19,102713,3,"dog"
"209","pilot2",9,"3OWEPKL08A1TR3RJOILHQWCMRC97NH","bow",2477,"tangram","close","H1.jpg","I1.jpg","survey-text",21,107880,3,"bow"
"210","pilot2",9,"3OWEPKL08A1TR3RJOILHQWCMRC97NH","hit",2927,"tangram","close","A2.jpg","tangram-99.jpg","survey-text",22,111329,3,"hit"
"211","pilot2",9,"3OWEPKL08A1TR3RJOILHQWCMRC97NH","run",2013,"tangram","close","tangram-55.jpg","N1.jpg","survey-text",23,113857,3,"run"
"212","pilot2",9,"3OWEPKL08A1TR3RJOILHQWCMRC97NH","give",4555,"tangram","close","tangram-90.jpg","tangram-81.jpg","survey-text",24,118936,4,"give"
"213","pilot2",9,"3OWEPKL08A1TR3RJOILHQWCMRC97NH","forward",3676,"tangram","close","B1.jpg","P1.jpg","survey-text",25,123128,7,"forward"
"214","pilot2",9,"3OWEPKL08A1TR3RJOILHQWCMRC97NH","slip",2608,"tangram","close","tangram-164.jpg","tangram-183.jpg","survey-text",26,126256,4,"slip"
"215","pilot2",9,"3OWEPKL08A1TR3RJOILHQWCMRC97NH","kick",3593,"tangram","close","tangram-48.jpg","tangram-187.jpg","survey-text",27,130377,4,"kick"
"216","pilot2",9,"3OWEPKL08A1TR3RJOILHQWCMRC97NH","run",2904,"tangram","close","tangram-67.jpg","tangram-32.jpg","survey-text",28,133793,3,"run"
"217","pilot2",9,"3OWEPKL08A1TR3RJOILHQWCMRC97NH","run",2122,"tangram","isolated","tangram-55.jpg","N1.jpg","survey-text",30,137984,3,"run"
"218","pilot2",9,"3OWEPKL08A1TR3RJOILHQWCMRC97NH","toss",2634,"tangram","isolated","A2.jpg","tangram-99.jpg","survey-text",31,141137,4,"toss"
"219","pilot2",9,"3OWEPKL08A1TR3RJOILHQWCMRC97NH","sit",3783,"tangram","isolated","tangram-164.jpg","tangram-183.jpg","survey-text",32,145432,3,"sit"
"220","pilot2",9,"3OWEPKL08A1TR3RJOILHQWCMRC97NH","bow",3177,"tangram","isolated","H1.jpg","I1.jpg","survey-text",33,149128,3,"bow"
"221","pilot2",9,"3OWEPKL08A1TR3RJOILHQWCMRC97NH","run",1787,"tangram","isolated","tangram-67.jpg","tangram-32.jpg","survey-text",34,151440,3,"run"
"222","pilot2",9,"3OWEPKL08A1TR3RJOILHQWCMRC97NH","joy",1999,"tangram","isolated","tangram-90.jpg","tangram-81.jpg","survey-text",35,153961,3,"joy"
"223","pilot2",9,"3OWEPKL08A1TR3RJOILHQWCMRC97NH","kick",2533,"tangram","isolated","tangram-48.jpg","tangram-187.jpg","survey-text",36,157016,4,"kick"
"224","pilot2",9,"3OWEPKL08A1TR3RJOILHQWCMRC97NH","forward",5096,"tangram","isolated","B1.jpg","P1.jpg","survey-text",37,162625,7,"forward"
"225","pilot2",9,"3OWEPKL08A1TR3RJOILHQWCMRC97NH","wood",4577,"familiar","close","diningtable.jpg","picnictable.jpg","survey-text",39,169840,4,"wood"
"226","pilot2",9,"3OWEPKL08A1TR3RJOILHQWCMRC97NH","fly",3629,"familiar","close","sparrow.jpg","eagle.jpg","survey-text",40,173984,3,"fly"
"227","pilot2",9,"3OWEPKL08A1TR3RJOILHQWCMRC97NH","car",2195,"familiar","close","sedan.jpg","sportscar.jpg","survey-text",41,176688,3,"car"
"228","pilot2",9,"3OWEPKL08A1TR3RJOILHQWCMRC97NH","nice",3252,"familiar","close","germanshepherd.jpg","pug.jpg","survey-text",42,180457,4,"nice"
"229","pilot2",9,"3OWEPKL08A1TR3RJOILHQWCMRC97NH","candy",2559,"familiar","close","mnms.jpg","gummybears.jpg","survey-text",43,183528,5,"candy"
"230","pilot2",9,"3OWEPKL08A1TR3RJOILHQWCMRC97NH","fish",5052,"familiar","close","goldfish.jpg","swordfish.jpg","survey-text",44,189096,4,"fish"
"231","pilot2",9,"3OWEPKL08A1TR3RJOILHQWCMRC97NH","shirt",2546,"familiar","close","poloshirt.jpg","hawaiishirt.jpg","survey-text",45,192145,5,"shirt"
"232","pilot2",9,"3OWEPKL08A1TR3RJOILHQWCMRC97NH","bear",2881,"familiar","close","grizzlybear.jpg","polarbear.jpg","survey-text",46,195536,4,"bear"
"233","pilot2",9,"3OWEPKL08A1TR3RJOILHQWCMRC97NH","animal",4226,"familiar","far","germanshepherd.jpg","cow.jpg","survey-text",48,201681,6,"animal"
"234","pilot2",9,"3OWEPKL08A1TR3RJOILHQWCMRC97NH","animal",3961,"familiar","far","goldfish.jpg","iguana.jpg","survey-text",49,206161,6,"animal"
"235","pilot2",9,"3OWEPKL08A1TR3RJOILHQWCMRC97NH","wood",5605,"familiar","far","diningtable.jpg","wardrobe.jpg","survey-text",50,212289,4,"wood"
"236","pilot2",9,"3OWEPKL08A1TR3RJOILHQWCMRC97NH","car",2716,"familiar","far","sedan.jpg","firetruck.jpg","survey-text",51,215512,3,"car"
"237","pilot2",9,"3OWEPKL08A1TR3RJOILHQWCMRC97NH","pet",2707,"familiar","far","sparrow.jpg","squirrel.jpg","survey-text",52,218737,3,"pet"
"238","pilot2",9,"3OWEPKL08A1TR3RJOILHQWCMRC97NH","animal",3641,"familiar","far","grizzlybear.jpg","lion.jpg","survey-text",53,222896,6,"animal"
"239","pilot2",9,"3OWEPKL08A1TR3RJOILHQWCMRC97NH","snack",5018,"familiar","far","mnms.jpg","pretzels.jpg","survey-text",54,228433,5,"snack"
"240","pilot2",9,"3OWEPKL08A1TR3RJOILHQWCMRC97NH","wear",3144,"familiar","far","poloshirt.jpg","dress.jpg","survey-text",55,232089,4,"wear"
"241","pilot2",10,"3HUTX6F6VVC4NNUPJL4Z9UVJ66GO2L","looks like metallic structure.",78409.9200000055,"tangram","isolated","H1.jpg","I1.jpg","survey-text",3,136663,30,"looklikemetallicstructure."
"242","pilot2",10,"3HUTX6F6VVC4NNUPJL4Z9UVJ66GO2L","looks like a human structure on the run.",24602.7199999953,"tangram","isolated","tangram-48.jpg","tangram-187.jpg","survey-text",4,161778,40,"looklikeahumanstructureontherun."
"243","pilot2",10,"3HUTX6F6VVC4NNUPJL4Z9UVJ66GO2L","looks like a female body structure walking.",24633.7699999858,"tangram","isolated","tangram-90.jpg","tangram-81.jpg","survey-text",5,186930,43,"looklikeafemalebodystructurewalk."
"244","pilot2",10,"3HUTX6F6VVC4NNUPJL4Z9UVJ66GO2L","this structure looks like a human sitting with one leg up.",46635.3550000058,"tangram","isolated","tangram-164.jpg","tangram-183.jpg","survey-text",6,234078,58,"thisstructurelooklikeahumansitwithonelegup."
"245","pilot2",10,"3HUTX6F6VVC4NNUPJL4Z9UVJ66GO2L","this structure looks like a kid running.",56689.5400000067,"tangram","isolated","tangram-55.jpg","N1.jpg","survey-text",7,291284,40,"thisstructurelooklikeakidrun."
"246","pilot2",10,"3HUTX6F6VVC4NNUPJL4Z9UVJ66GO2L","this structure looks like a female body figure on a run.",48723.0750000017,"tangram","isolated","tangram-67.jpg","tangram-32.jpg","survey-text",8,340522,56,"thisstructurelooklikeafemalebodyfigureonarun."
"247","pilot2",10,"3HUTX6F6VVC4NNUPJL4Z9UVJ66GO2L","this structure looks like a human body walking in a depressed state.",43484.4600000069,"tangram","isolated","B1.jpg","P1.jpg","survey-text",9,384519,68,"thisstructurelooklikeahumanbodywalkinadepressstate."
"248","pilot2",10,"3HUTX6F6VVC4NNUPJL4Z9UVJ66GO2L","looks like a female body structure walking.",57040.8299999981,"tangram","isolated","A2.jpg","tangram-99.jpg","survey-text",10,442065,43,"looklikeafemalebodystructurewalk."
"249","pilot2",10,"3HUTX6F6VVC4NNUPJL4Z9UVJ66GO2L","looks like a human walking in a depressed state.",60891.4050000021,"tangram","close","B1.jpg","P1.jpg","survey-text",12,540276,48,"looklikeahumanwalkinadepressstate."
"250","pilot2",10,"3HUTX6F6VVC4NNUPJL4Z9UVJ66GO2L","the structure looks like a man sitting upright with a leg up.",63892.869999996,"tangram","close","tangram-164.jpg","tangram-183.jpg","survey-text",13,604678,61,"thestructurelooklikeamansituprightwithalegup."
"251","pilot2",10,"3HUTX6F6VVC4NNUPJL4Z9UVJ66GO2L","the structure looks like a female body running  gently.",121524.455000006,"tangram","close","tangram-90.jpg","tangram-81.jpg","survey-text",14,726719,55,"thestructurelooklikeafemalebodyrungently."
"252","pilot2",10,"3HUTX6F6VVC4NNUPJL4Z9UVJ66GO2L","this structure resembles a man walking majestically.",59668.0049999995,"tangram","close","tangram-48.jpg","tangram-187.jpg","survey-text",15,786895,52,"thisstructureresembleamanwalkmajestically."
"253","pilot2",10,"3HUTX6F6VVC4NNUPJL4Z9UVJ66GO2L","this structure looks like a female body running.",212513.499999986,"tangram","close","tangram-67.jpg","tangram-32.jpg","survey-text",16,999927,48,"thisstructurelooklikeafemalebodyrun."
"254","pilot2",10,"3HUTX6F6VVC4NNUPJL4Z9UVJ66GO2L","this structure looks like a man sitting and holding something in his stretched out hands.",61493.8950000069,"tangram","close","H1.jpg","I1.jpg","survey-text",17,1061927,89,"thisstructurelooklikeamansitandholdsomethinginhisstretchouthand."
"255","pilot2",10,"3HUTX6F6VVC4NNUPJL4Z9UVJ66GO2L","this image here looks like a human structure running aggressively.",52192.0550000069,"tangram","close","tangram-55.jpg","N1.jpg","survey-text",18,1114638,66,"thisimageherelooklikeahumanstructurerunaggressively."
"256","pilot2",10,"3HUTX6F6VVC4NNUPJL4Z9UVJ66GO2L","this image shows a female body structure walking towards the left side.",37166.3750000005,"tangram","close","A2.jpg","tangram-99.jpg","survey-text",19,1152314,71,"thisimageshowafemalebodystructurewalktowardstheleaveside."
"257","pilot2",10,"3HUTX6F6VVC4NNUPJL4Z9UVJ66GO2L","this image is a little bird that chirps regularly anywhere it perches.",68591.6649999998,"familiar","close","sparrow.jpg","eagle.jpg","survey-text",21,1232172,70,"thisimagebealittlebirdthatchirpregularlyanywhereitperch."
"258","pilot2",10,"3HUTX6F6VVC4NNUPJL4Z9UVJ66GO2L","this image is a blue sedan four doors type of car.",29239.4950000017,"familiar","close","sedan.jpg","sportscar.jpg","survey-text",22,1261925,50,"thisimagebeabluesedanfourdoortypeofcar."
"259","pilot2",10,"3HUTX6F6VVC4NNUPJL4Z9UVJ66GO2L","this is a rectangular high legged table.",40987.3649999937,"familiar","close","diningtable.jpg","picnictable.jpg","survey-text",23,1303455,40,"thisbearectangularhighlegtable."
"260","pilot2",10,"3HUTX6F6VVC4NNUPJL4Z9UVJ66GO2L","this image is a brown colored walking bear.",36388.0950000021,"familiar","close","grizzlybear.jpg","polarbear.jpg","survey-text",24,1340353,43,"thisimagebeabrowncolorwalkbear."
"261","pilot2",10,"3HUTX6F6VVC4NNUPJL4Z9UVJ66GO2L","this image is a picture of a german shepherded dog in a position of about to sit.",87409.0250000008,"familiar","close","germanshepherd.jpg","pug.jpg","survey-text",25,1428273,81,"thisimagebeapictureofagermanshepherddoginapositionofabouttosit."
"262","pilot2",10,"3HUTX6F6VVC4NNUPJL4Z9UVJ66GO2L","this picture shows m&ma candies.",59541.0550000085,"familiar","close","mnms.jpg","gummybears.jpg","survey-text",26,1488334,32,"thispictureshowbe&macandy."
"263","pilot2",10,"3HUTX6F6VVC4NNUPJL4Z9UVJ66GO2L","this is a picture of a gold fish.",11401.2650000078,"familiar","close","goldfish.jpg","swordfish.jpg","survey-text",27,1500246,33,"thisbeapictureofagoldfish."
"264","pilot2",10,"3HUTX6F6VVC4NNUPJL4Z9UVJ66GO2L","this is a plane blue polo t-shirt.",33531.6599999932,"familiar","close","poloshirt.jpg","hawaiishirt.jpg","survey-text",28,1534284,34,"thisbeaplanebluepolot-shirt."
"265","pilot2",10,"3HUTX6F6VVC4NNUPJL4Z9UVJ66GO2L","this is a bird",20300.8450000051,"familiar","far","sparrow.jpg","squirrel.jpg","survey-text",30,1565391,14,"thisbeabird"
"266","pilot2",10,"3HUTX6F6VVC4NNUPJL4Z9UVJ66GO2L","a gold fish.",9037.99000001186,"familiar","far","goldfish.jpg","iguana.jpg","survey-text",31,1574937,12,"agoldfish."
"267","pilot2",10,"3HUTX6F6VVC4NNUPJL4Z9UVJ66GO2L","a blue car",17068.3549999958,"familiar","far","sedan.jpg","firetruck.jpg","survey-text",32,1592516,10,"abluecar"
"268","pilot2",10,"3HUTX6F6VVC4NNUPJL4Z9UVJ66GO2L","a bear.",6433.45499999123,"familiar","far","grizzlybear.jpg","lion.jpg","survey-text",33,1599457,7,"abear."
"269","pilot2",10,"3HUTX6F6VVC4NNUPJL4Z9UVJ66GO2L","m&m candies",11499.2800000035,"familiar","far","mnms.jpg","pretzels.jpg","survey-text",34,1611472,11,"be&becandy"
"270","pilot2",10,"3HUTX6F6VVC4NNUPJL4Z9UVJ66GO2L","a german shepherd dog",23442.6700000041,"familiar","far","germanshepherd.jpg","cow.jpg","survey-text",35,1635430,21,"agermanshepherddog"
"271","pilot2",10,"3HUTX6F6VVC4NNUPJL4Z9UVJ66GO2L","a plane blue t-shirt",23790.209999992,"familiar","far","poloshirt.jpg","dress.jpg","survey-text",36,1659734,20,"aplanebluet-shirt"
"272","pilot2",10,"3HUTX6F6VVC4NNUPJL4Z9UVJ66GO2L","a table.",9520.9249999898,"familiar","far","diningtable.jpg","wardrobe.jpg","survey-text",37,1669763,8,"atable."
"273","pilot2",10,"3HUTX6F6VVC4NNUPJL4Z9UVJ66GO2L","m&m candies",11296.2100000004,"familiar","isolated","mnms.jpg","gummybears.jpg","survey-text",39,1687389,11,"be&becandy"
"274","pilot2",10,"3HUTX6F6VVC4NNUPJL4Z9UVJ66GO2L","bear",12333.3949999942,"familiar","isolated","grizzlybear.jpg","polarbear.jpg","survey-text",40,1700231,4,"bear"
"275","pilot2",10,"3HUTX6F6VVC4NNUPJL4Z9UVJ66GO2L","car",8277.97500000452,"familiar","isolated","sedan.jpg","sportscar.jpg","survey-text",41,1709026,3,"car"
"276","pilot2",10,"3HUTX6F6VVC4NNUPJL4Z9UVJ66GO2L","dog",6577.96500000404,"familiar","isolated","germanshepherd.jpg","pug.jpg","survey-text",42,1716113,3,"dog"
"277","pilot2",10,"3HUTX6F6VVC4NNUPJL4Z9UVJ66GO2L","a blue shirt",18209.5350000015,"familiar","isolated","poloshirt.jpg","hawaiishirt.jpg","survey-text",43,1734828,12,"ablueshirt"
"278","pilot2",10,"3HUTX6F6VVC4NNUPJL4Z9UVJ66GO2L","a bird",4560.82500000764,"familiar","isolated","sparrow.jpg","eagle.jpg","survey-text",44,1739903,6,"abird"
"279","pilot2",10,"3HUTX6F6VVC4NNUPJL4Z9UVJ66GO2L","a gold fish",6060.76499998756,"familiar","isolated","goldfish.jpg","swordfish.jpg","survey-text",45,1746472,11,"agoldfish"
"280","pilot2",10,"3HUTX6F6VVC4NNUPJL4Z9UVJ66GO2L","a table",3934.06999998866,"familiar","isolated","diningtable.jpg","picnictable.jpg","survey-text",46,1750923,7,"atable"
"281","pilot2",10,"3HUTX6F6VVC4NNUPJL4Z9UVJ66GO2L","a human structure in a sitting position holding something.",46145.3199999961,"tangram","far","H1.jpg","tangram-8.jpg","survey-text",48,1807229,58,"ahumanstructureinasitpositionholdsomething."
"282","pilot2",10,"3HUTX6F6VVC4NNUPJL4Z9UVJ66GO2L","a human structure walking towards the left",20052.2099999944,"tangram","far","tangram-48.jpg","D1.jpg","survey-text",49,1827792,42,"ahumanstructurewalktowardstheleave"
"283","pilot2",10,"3HUTX6F6VVC4NNUPJL4Z9UVJ66GO2L","a female body structure walking towards the left side",33795.5199999996,"tangram","far","A2.jpg","C1.jpg","survey-text",50,1862100,53,"afemalebodystructurewalktowardstheleaveside"
"284","pilot2",10,"3HUTX6F6VVC4NNUPJL4Z9UVJ66GO2L","a male body structure sitting with one leg up",34468.4249999993,"tangram","far","tangram-164.jpg","tangram-64.jpg","survey-text",51,1897081,45,"amalebodystructuresitwithonelegup"
"285","pilot2",10,"3HUTX6F6VVC4NNUPJL4Z9UVJ66GO2L","a female body structure running",19652.11499999,"tangram","far","tangram-67.jpg","G1.jpg","survey-text",52,1917251,31,"afemalebodystructurerun"
"286","pilot2",10,"3HUTX6F6VVC4NNUPJL4Z9UVJ66GO2L","an unidentified human body structure running",26189.3500000006,"tangram","far","tangram-55.jpg","tangram-143.jpg","survey-text",53,1943951,44,"aunidentifiedhumanbodystructurerun"
"287","pilot2",10,"3HUTX6F6VVC4NNUPJL4Z9UVJ66GO2L","a female body structure walking",24385.3099999977,"tangram","far","B1.jpg","tangram-4.jpg","survey-text",54,1968850,31,"afemalebodystructurewalk"
"288","pilot2",10,"3HUTX6F6VVC4NNUPJL4Z9UVJ66GO2L","a female body structure walking",16357.534999988,"tangram","far","tangram-90.jpg","tangram-120.jpg","survey-text",55,1985730,31,"afemalebodystructurewalk"
"289","pilot2",11,"35GMH2SV3F6WI365C5Z0BV48396EOD","brown bear",19783.7500000023,"familiar","isolated","grizzlybear.jpg","polarbear.jpg","survey-text",3,54639,10,"brownbear"
"290","pilot2",11,"35GMH2SV3F6WI365C5Z0BV48396EOD","blue shirt",14624.13500002,"familiar","isolated","poloshirt.jpg","hawaiishirt.jpg","survey-text",4,69767,10,"blueshirt"
"291","pilot2",11,"35GMH2SV3F6WI365C5Z0BV48396EOD","goldfish",11350.6999999809,"familiar","isolated","goldfish.jpg","swordfish.jpg","survey-text",5,81623,8,"goldfish"
"292","pilot2",11,"35GMH2SV3F6WI365C5Z0BV48396EOD","long table",6674.18500001077,"familiar","isolated","diningtable.jpg","picnictable.jpg","survey-text",6,88799,10,"longtable"
"293","pilot2",11,"35GMH2SV3F6WI365C5Z0BV48396EOD","bird",18978.1400000211,"familiar","isolated","sparrow.jpg","eagle.jpg","survey-text",7,108280,4,"bird"
"294","pilot2",11,"35GMH2SV3F6WI365C5Z0BV48396EOD","blue car",10224.9049999809,"familiar","isolated","sedan.jpg","sportscar.jpg","survey-text",8,119007,8,"bluecar"
"295","pilot2",11,"35GMH2SV3F6WI365C5Z0BV48396EOD","chocolate candy",32817.2499999928,"familiar","isolated","mnms.jpg","gummybears.jpg","survey-text",9,152327,15,"chocolatecandy"
"296","pilot2",11,"35GMH2SV3F6WI365C5Z0BV48396EOD","german shepard",10704.1949999984,"familiar","isolated","germanshepherd.jpg","pug.jpg","survey-text",10,163535,14,"germanshepard"
"297","pilot2",11,"35GMH2SV3F6WI365C5Z0BV48396EOD","blue car",7465.27499999502,"familiar","close","sedan.jpg","sportscar.jpg","survey-text",12,182791,8,"bluecar"
"298","pilot2",11,"35GMH2SV3F6WI365C5Z0BV48396EOD","long table",9913.03500000504,"familiar","close","diningtable.jpg","picnictable.jpg","survey-text",13,193207,10,"longtable"
"299","pilot2",11,"35GMH2SV3F6WI365C5Z0BV48396EOD","small bird",15399.3699999992,"familiar","close","sparrow.jpg","eagle.jpg","survey-text",14,209111,10,"smallbird"
"300","pilot2",11,"35GMH2SV3F6WI365C5Z0BV48396EOD","chocolate candy",5729.62500000722,"familiar","close","mnms.jpg","gummybears.jpg","survey-text",15,215343,15,"chocolatecandy"
"301","pilot2",11,"35GMH2SV3F6WI365C5Z0BV48396EOD","plain shirt",7864.38000001363,"familiar","close","poloshirt.jpg","hawaiishirt.jpg","survey-text",16,223710,11,"plainshirt"
"302","pilot2",11,"35GMH2SV3F6WI365C5Z0BV48396EOD","german shepard",3694.22499998473,"familiar","close","germanshepherd.jpg","pug.jpg","survey-text",17,227911,14,"germanshepard"
"303","pilot2",11,"35GMH2SV3F6WI365C5Z0BV48396EOD","brown bear",4449.32000001427,"familiar","close","grizzlybear.jpg","polarbear.jpg","survey-text",18,232863,10,"brownbear"
"304","pilot2",11,"35GMH2SV3F6WI365C5Z0BV48396EOD","goldfish",2920.91499999515,"familiar","close","goldfish.jpg","swordfish.jpg","survey-text",19,236287,8,"goldfish"
"305","pilot2",11,"35GMH2SV3F6WI365C5Z0BV48396EOD","running",7510.50000000396,"tangram","close","tangram-67.jpg","tangram-32.jpg","survey-text",21,249414,7,"run"
"306","pilot2",11,"35GMH2SV3F6WI365C5Z0BV48396EOD","fat kick",6166.69499999261,"tangram","close","tangram-48.jpg","tangram-187.jpg","survey-text",22,256087,8,"fatkick"
"307","pilot2",11,"35GMH2SV3F6WI365C5Z0BV48396EOD","not fall",24420.7949999836,"tangram","close","tangram-164.jpg","tangram-183.jpg","survey-text",23,281015,8,"notfall"
"308","pilot2",11,"35GMH2SV3F6WI365C5Z0BV48396EOD","no bowl",12678.8400000078,"tangram","close","H1.jpg","I1.jpg","survey-text",24,294199,7,"nobowl"
"309","pilot2",11,"35GMH2SV3F6WI365C5Z0BV48396EOD","big triangle",37736.1300000048,"tangram","close","tangram-90.jpg","tangram-81.jpg","survey-text",25,332439,12,"bigtriangle"
"310","pilot2",11,"35GMH2SV3F6WI365C5Z0BV48396EOD","sad man",36634.2050000094,"tangram","close","B1.jpg","P1.jpg","survey-text",26,369575,7,"sadman"
"311","pilot2",11,"35GMH2SV3F6WI365C5Z0BV48396EOD","arms back",26785.1099999971,"tangram","close","tangram-55.jpg","N1.jpg","survey-text",27,396863,9,"armback"
"312","pilot2",11,"35GMH2SV3F6WI365C5Z0BV48396EOD","ponytail",10124.3050000048,"tangram","close","A2.jpg","tangram-99.jpg","survey-text",28,407494,8,"ponytail"
"313","pilot2",11,"35GMH2SV3F6WI365C5Z0BV48396EOD","bear",15233.7699999916,"familiar","far","grizzlybear.jpg","lion.jpg","survey-text",30,428471,4,"bear"
"314","pilot2",11,"35GMH2SV3F6WI365C5Z0BV48396EOD","shirt",3303.53499998455,"familiar","far","poloshirt.jpg","dress.jpg","survey-text",31,432279,5,"shirt"
"315","pilot2",11,"35GMH2SV3F6WI365C5Z0BV48396EOD","bird",2542.90000000037,"familiar","far","sparrow.jpg","squirrel.jpg","survey-text",32,435327,4,"bird"
"316","pilot2",11,"35GMH2SV3F6WI365C5Z0BV48396EOD","chocolate",6862.82999999821,"familiar","far","mnms.jpg","pretzels.jpg","survey-text",33,442695,9,"chocolate"
"317","pilot2",11,"35GMH2SV3F6WI365C5Z0BV48396EOD","car",1912.10499999579,"familiar","far","sedan.jpg","firetruck.jpg","survey-text",34,445110,3,"car"
"318","pilot2",11,"35GMH2SV3F6WI365C5Z0BV48396EOD","dog",1960.99500000128,"familiar","far","germanshepherd.jpg","cow.jpg","survey-text",35,447575,3,"dog"
"319","pilot2",11,"35GMH2SV3F6WI365C5Z0BV48396EOD","fish",1977.34500002116,"familiar","far","goldfish.jpg","iguana.jpg","survey-text",36,450055,4,"fish"
"320","pilot2",11,"35GMH2SV3F6WI365C5Z0BV48396EOD","table",2928.69499998051,"familiar","far","diningtable.jpg","wardrobe.jpg","survey-text",37,453487,5,"table"
"321","pilot2",11,"35GMH2SV3F6WI365C5Z0BV48396EOD","arms wide",10251.0100000072,"tangram","isolated","tangram-90.jpg","tangram-81.jpg","survey-text",39,469455,9,"armwide"
"322","pilot2",11,"35GMH2SV3F6WI365C5Z0BV48396EOD","running",6598.38500001933,"tangram","isolated","tangram-67.jpg","tangram-32.jpg","survey-text",40,476558,7,"run"
"323","pilot2",11,"35GMH2SV3F6WI365C5Z0BV48396EOD","kicking",3609.50999998022,"tangram","isolated","tangram-48.jpg","tangram-187.jpg","survey-text",41,480671,7,"kick"
"324","pilot2",11,"35GMH2SV3F6WI365C5Z0BV48396EOD","depressed",5310.6099999859,"tangram","isolated","B1.jpg","P1.jpg","survey-text",42,486487,9,"depress"
"325","pilot2",11,"35GMH2SV3F6WI365C5Z0BV48396EOD","ponytail woman",14703.6300000036,"tangram","isolated","A2.jpg","tangram-99.jpg","survey-text",43,501695,14,"ponytailwoman"
"326","pilot2",11,"35GMH2SV3F6WI365C5Z0BV48396EOD","naruto run",9761.12999999896,"tangram","isolated","tangram-55.jpg","N1.jpg","survey-text",44,511959,10,"narutorun"
"327","pilot2",11,"35GMH2SV3F6WI365C5Z0BV48396EOD","squat kick",11657.7899999975,"tangram","isolated","tangram-164.jpg","tangram-183.jpg","survey-text",45,524119,10,"squatkick"
"328","pilot2",11,"35GMH2SV3F6WI365C5Z0BV48396EOD","palms out",9410.15999999945,"tangram","isolated","H1.jpg","I1.jpg","survey-text",46,534032,9,"palmout"
"329","pilot2",11,"35GMH2SV3F6WI365C5Z0BV48396EOD","woman standing",12026.0650000127,"tangram","far","A2.jpg","C1.jpg","survey-text",48,551902,14,"womanstand"
"330","pilot2",11,"35GMH2SV3F6WI365C5Z0BV48396EOD","man begging",7576.83000000543,"tangram","far","H1.jpg","tangram-8.jpg","survey-text",49,559982,11,"manbeg"
"331","pilot2",11,"35GMH2SV3F6WI365C5Z0BV48396EOD","running",6029.03000000515,"tangram","far","tangram-67.jpg","G1.jpg","survey-text",50,566518,7,"run"
"332","pilot2",11,"35GMH2SV3F6WI365C5Z0BV48396EOD","arms spread",4406.58000000985,"tangram","far","tangram-90.jpg","tangram-120.jpg","survey-text",51,571430,11,"armspread"
"333","pilot2",11,"35GMH2SV3F6WI365C5Z0BV48396EOD","kicking",3488.58999999357,"tangram","far","tangram-48.jpg","D1.jpg","survey-text",52,575422,7,"kick"
"334","pilot2",11,"35GMH2SV3F6WI365C5Z0BV48396EOD","depressed",2524.78000000701,"tangram","far","B1.jpg","tangram-4.jpg","survey-text",53,578454,9,"depress"
"335","pilot2",11,"35GMH2SV3F6WI365C5Z0BV48396EOD","running",8010.16000000527,"tangram","far","tangram-55.jpg","tangram-143.jpg","survey-text",54,586966,7,"run"
"336","pilot2",11,"35GMH2SV3F6WI365C5Z0BV48396EOD","squat",4886.54499998665,"tangram","far","tangram-164.jpg","tangram-64.jpg","survey-text",55,592358,5,"squat"
"337","pilot2",12,"3AZHRG4CU5985OYPL0GT234TEMO03G","bird",7239.99999999069,"familiar","far","sparrow.jpg","squirrel.jpg","survey-text",3,34470,4,"bird"
"338","pilot2",12,"3AZHRG4CU5985OYPL0GT234TEMO03G","bear",5092.99999987707,"familiar","far","grizzlybear.jpg","lion.jpg","survey-text",4,40082,4,"bear"
"339","pilot2",12,"3AZHRG4CU5985OYPL0GT234TEMO03G","car",2868.00000001676,"familiar","far","sedan.jpg","firetruck.jpg","survey-text",5,43456,3,"car"
"340","pilot2",12,"3AZHRG4CU5985OYPL0GT234TEMO03G","table",5949.00000002235,"familiar","far","diningtable.jpg","wardrobe.jpg","survey-text",6,49913,5,"table"
"341","pilot2",12,"3AZHRG4CU5985OYPL0GT234TEMO03G","dog",2813.00000008196,"familiar","far","germanshepherd.jpg","cow.jpg","survey-text",7,53232,3,"dog"
"342","pilot2",12,"3AZHRG4CU5985OYPL0GT234TEMO03G","shirt",4510.9999999404,"familiar","far","poloshirt.jpg","dress.jpg","survey-text",8,58249,5,"shirt"
"343","pilot2",12,"3AZHRG4CU5985OYPL0GT234TEMO03G","fish",3570.00000006519,"familiar","far","goldfish.jpg","iguana.jpg","survey-text",9,62338,4,"fish"
"344","pilot2",12,"3AZHRG4CU5985OYPL0GT234TEMO03G","mnms",4507.99999991432,"familiar","far","mnms.jpg","pretzels.jpg","survey-text",10,67365,4,"mnms"
"345","pilot2",12,"3AZHRG4CU5985OYPL0GT234TEMO03G","plain tshirt",9205.00000007451,"familiar","close","poloshirt.jpg","hawaiishirt.jpg","survey-text",12,81158,12,"plaintshirt"
"346","pilot2",12,"3AZHRG4CU5985OYPL0GT234TEMO03G","golden fish",5811.99999991804,"familiar","close","goldfish.jpg","swordfish.jpg","survey-text",13,87483,11,"goldenfish"
"347","pilot2",12,"3AZHRG4CU5985OYPL0GT234TEMO03G","brown bear",5921.00000008941,"familiar","close","grizzlybear.jpg","polarbear.jpg","survey-text",14,93938,10,"brownbear"
"348","pilot2",12,"3AZHRG4CU5985OYPL0GT234TEMO03G","table",3653.99999986403,"familiar","close","diningtable.jpg","picnictable.jpg","survey-text",15,98106,5,"table"
"349","pilot2",12,"3AZHRG4CU5985OYPL0GT234TEMO03G","german shephard",6716.99999994598,"familiar","close","germanshepherd.jpg","pug.jpg","survey-text",16,105329,15,"germanshephard"
"350","pilot2",12,"3AZHRG4CU5985OYPL0GT234TEMO03G","bird",5685.99999998696,"familiar","close","sparrow.jpg","eagle.jpg","survey-text",17,111632,4,"bird"
"351","pilot2",12,"3AZHRG4CU5985OYPL0GT234TEMO03G","car",4923.99999988265,"familiar","close","sedan.jpg","sportscar.jpg","survey-text",18,117059,3,"car"
"352","pilot2",12,"3AZHRG4CU5985OYPL0GT234TEMO03G","mnms",3596.00000013597,"familiar","close","mnms.jpg","gummybears.jpg","survey-text",19,121163,4,"mnms"
"353","pilot2",12,"3AZHRG4CU5985OYPL0GT234TEMO03G","running",7488.99999982677,"tangram","close","tangram-90.jpg","tangram-81.jpg","survey-text",21,133532,7,"run"
"354","pilot2",12,"3AZHRG4CU5985OYPL0GT234TEMO03G","holding something",6165.00000003725,"tangram","close","H1.jpg","I1.jpg","survey-text",22,140214,17,"holdsomething"
"355","pilot2",12,"3AZHRG4CU5985OYPL0GT234TEMO03G","running fast",4387.00000010431,"tangram","close","tangram-55.jpg","N1.jpg","survey-text",23,145108,12,"runfast"
"356","pilot2",12,"3AZHRG4CU5985OYPL0GT234TEMO03G","walking",5597.99999999814,"tangram","close","A2.jpg","tangram-99.jpg","survey-text",24,151225,7,"walk"
"357","pilot2",12,"3AZHRG4CU5985OYPL0GT234TEMO03G","falling",3013.00000003539,"tangram","close","tangram-164.jpg","tangram-183.jpg","survey-text",25,154744,7,"fall"
"358","pilot2",12,"3AZHRG4CU5985OYPL0GT234TEMO03G","looking down",6128.00000002608,"tangram","close","B1.jpg","P1.jpg","survey-text",26,161377,12,"lookdown"
"359","pilot2",12,"3AZHRG4CU5985OYPL0GT234TEMO03G","enjoying",3658.00000005402,"tangram","close","tangram-48.jpg","tangram-187.jpg","survey-text",27,165550,8,"enjoy"
"360","pilot2",12,"3AZHRG4CU5985OYPL0GT234TEMO03G","running",3883.00000014715,"tangram","close","tangram-67.jpg","tangram-32.jpg","survey-text",28,169940,7,"run"
"361","pilot2",12,"3AZHRG4CU5985OYPL0GT234TEMO03G","holding",4019.00000008754,"tangram","far","H1.jpg","tangram-8.jpg","survey-text",30,178225,7,"hold"
"362","pilot2",12,"3AZHRG4CU5985OYPL0GT234TEMO03G","falling",2820.00000006519,"tangram","far","tangram-164.jpg","tangram-64.jpg","survey-text",31,181551,7,"fall"
"363","pilot2",12,"3AZHRG4CU5985OYPL0GT234TEMO03G","waling",2925.00000004657,"tangram","far","B1.jpg","tangram-4.jpg","survey-text",32,184992,6,"wale"
"364","pilot2",12,"3AZHRG4CU5985OYPL0GT234TEMO03G","rnning",1783.00000005402,"tangram","far","tangram-55.jpg","tangram-143.jpg","survey-text",33,187290,6,"rnning"
"365","pilot2",12,"3AZHRG4CU5985OYPL0GT234TEMO03G","running",4208.99999979883,"tangram","far","tangram-48.jpg","D1.jpg","survey-text",34,192014,7,"run"
"366","pilot2",12,"3AZHRG4CU5985OYPL0GT234TEMO03G","walking",2618.00000001676,"tangram","far","A2.jpg","C1.jpg","survey-text",35,195142,7,"walk"
"367","pilot2",12,"3AZHRG4CU5985OYPL0GT234TEMO03G","running",3508.00000014715,"tangram","far","tangram-67.jpg","G1.jpg","survey-text",36,199166,7,"run"
"368","pilot2",12,"3AZHRG4CU5985OYPL0GT234TEMO03G","walking",3647.00000011362,"tangram","far","tangram-90.jpg","tangram-120.jpg","survey-text",37,203331,7,"walk"
"369","pilot2",12,"3AZHRG4CU5985OYPL0GT234TEMO03G","walking",4600.00000009313,"tangram","isolated","B1.jpg","P1.jpg","survey-text",39,215587,7,"walk"
"370","pilot2",12,"3AZHRG4CU5985OYPL0GT234TEMO03G","walking fast",4857.00000007637,"tangram","isolated","tangram-90.jpg","tangram-81.jpg","survey-text",40,220956,12,"walkfast"
"371","pilot2",12,"3AZHRG4CU5985OYPL0GT234TEMO03G","running",2748.99999983609,"tangram","isolated","tangram-55.jpg","N1.jpg","survey-text",41,224210,7,"run"
"372","pilot2",12,"3AZHRG4CU5985OYPL0GT234TEMO03G","walking",2718.99999980815,"tangram","isolated","A2.jpg","tangram-99.jpg","survey-text",42,227450,7,"walk"
"373","pilot2",12,"3AZHRG4CU5985OYPL0GT234TEMO03G","running",2071.99999992736,"tangram","isolated","tangram-67.jpg","tangram-32.jpg","survey-text",43,230055,7,"run"
"374","pilot2",12,"3AZHRG4CU5985OYPL0GT234TEMO03G","parade",12445.9999999963,"tangram","isolated","tangram-48.jpg","tangram-187.jpg","survey-text",44,243014,6,"parade"
"375","pilot2",12,"3AZHRG4CU5985OYPL0GT234TEMO03G","holding something",12073.0000000913,"tangram","isolated","H1.jpg","I1.jpg","survey-text",45,255598,17,"holdsomething"
"376","pilot2",12,"3AZHRG4CU5985OYPL0GT234TEMO03G","falling",2797.99999995157,"tangram","isolated","tangram-164.jpg","tangram-183.jpg","survey-text",46,258918,7,"fall"
"377","pilot2",12,"3AZHRG4CU5985OYPL0GT234TEMO03G","tshirt",5040.00000003725,"familiar","isolated","poloshirt.jpg","hawaiishirt.jpg","survey-text",48,268548,6,"tshirt"
"378","pilot2",12,"3AZHRG4CU5985OYPL0GT234TEMO03G","dog",2989.0000000596,"familiar","isolated","germanshepherd.jpg","pug.jpg","survey-text",49,272052,3,"dog"
"379","pilot2",12,"3AZHRG4CU5985OYPL0GT234TEMO03G","bird",2527.99999993294,"familiar","isolated","sparrow.jpg","eagle.jpg","survey-text",50,275092,4,"bird"
"380","pilot2",12,"3AZHRG4CU5985OYPL0GT234TEMO03G","car",1765.00000013039,"familiar","isolated","sedan.jpg","sportscar.jpg","survey-text",51,277383,3,"car"
"381","pilot2",12,"3AZHRG4CU5985OYPL0GT234TEMO03G","table",2206.00000000559,"familiar","isolated","diningtable.jpg","picnictable.jpg","survey-text",52,280117,5,"table"
"382","pilot2",12,"3AZHRG4CU5985OYPL0GT234TEMO03G","bear",1871.00000004284,"familiar","isolated","grizzlybear.jpg","polarbear.jpg","survey-text",53,282494,4,"bear"
"383","pilot2",12,"3AZHRG4CU5985OYPL0GT234TEMO03G","mnms",2435.99999998696,"familiar","isolated","mnms.jpg","gummybears.jpg","survey-text",54,285464,4,"mnms"
"384","pilot2",12,"3AZHRG4CU5985OYPL0GT234TEMO03G","fish",3173.99999988265,"familiar","isolated","goldfish.jpg","swordfish.jpg","survey-text",55,289164,4,"fish"
"385","pilot2",13,"3HHRAGRYX9UFN7FO4UJEJH3XCCTO9G","man",5883.50500003435,"tangram","isolated","tangram-90.jpg","tangram-81.jpg","survey-text",3,63751,3,"man"
"386","pilot2",13,"3HHRAGRYX9UFN7FO4UJEJH3XCCTO9G","soldier",6297.06499999156,"tangram","isolated","tangram-48.jpg","tangram-187.jpg","survey-text",4,70555,7,"soldier"
"387","pilot2",13,"3HHRAGRYX9UFN7FO4UJEJH3XCCTO9G","priest",3103.73000003165,"tangram","isolated","H1.jpg","I1.jpg","survey-text",5,74177,6,"priest"
"388","pilot2",13,"3HHRAGRYX9UFN7FO4UJEJH3XCCTO9G","jogger",2843.47999998135,"tangram","isolated","tangram-67.jpg","tangram-32.jpg","survey-text",6,77525,6,"jogger"
"389","pilot2",13,"3HHRAGRYX9UFN7FO4UJEJH3XCCTO9G","soccer player",3794.27999997279,"tangram","isolated","tangram-164.jpg","tangram-183.jpg","survey-text",7,81827,13,"soccerplayer"
"390","pilot2",13,"3HHRAGRYX9UFN7FO4UJEJH3XCCTO9G","grandpa",6266.79999998305,"tangram","isolated","B1.jpg","P1.jpg","survey-text",8,88607,7,"grandpa"
"391","pilot2",13,"3HHRAGRYX9UFN7FO4UJEJH3XCCTO9G","young woman",5446.92999997642,"tangram","isolated","A2.jpg","tangram-99.jpg","survey-text",9,94569,11,"youngwoman"
"392","pilot2",13,"3HHRAGRYX9UFN7FO4UJEJH3XCCTO9G","robber",5089.32000002824,"tangram","isolated","tangram-55.jpg","N1.jpg","survey-text",10,100161,6,"robber"
"393","pilot2",13,"3HHRAGRYX9UFN7FO4UJEJH3XCCTO9G","goldfish",4945.05500001833,"familiar","close","goldfish.jpg","swordfish.jpg","survey-text",12,110916,8,"goldfish"
"394","pilot2",13,"3HHRAGRYX9UFN7FO4UJEJH3XCCTO9G","big dog",3852.74999996182,"familiar","close","germanshepherd.jpg","pug.jpg","survey-text",13,115273,7,"bigdog"
"395","pilot2",13,"3HHRAGRYX9UFN7FO4UJEJH3XCCTO9G","solid",3999.26000001142,"familiar","close","poloshirt.jpg","hawaiishirt.jpg","survey-text",14,119788,5,"solid"
"396","pilot2",13,"3HHRAGRYX9UFN7FO4UJEJH3XCCTO9G","small",3839.37999996124,"familiar","close","sparrow.jpg","eagle.jpg","survey-text",15,124137,5,"small"
"397","pilot2",13,"3HHRAGRYX9UFN7FO4UJEJH3XCCTO9G","chocolate",3795.28999998001,"familiar","close","mnms.jpg","gummybears.jpg","survey-text",16,128439,9,"chocolate"
"398","pilot2",13,"3HHRAGRYX9UFN7FO4UJEJH3XCCTO9G","long table",5736.94999999134,"familiar","close","diningtable.jpg","picnictable.jpg","survey-text",17,134698,10,"longtable"
"399","pilot2",13,"3HHRAGRYX9UFN7FO4UJEJH3XCCTO9G","brown",5412.61500003748,"familiar","close","grizzlybear.jpg","polarbear.jpg","survey-text",18,140614,5,"brown"
"400","pilot2",13,"3HHRAGRYX9UFN7FO4UJEJH3XCCTO9G","blue",3209.08000000054,"familiar","close","sedan.jpg","sportscar.jpg","survey-text",19,144329,4,"blue"
"401","pilot2",13,"3HHRAGRYX9UFN7FO4UJEJH3XCCTO9G","kicker",9134.35499998741,"tangram","close","tangram-164.jpg","tangram-183.jpg","survey-text",21,158033,6,"kicker"
"402","pilot2",13,"3HHRAGRYX9UFN7FO4UJEJH3XCCTO9G","hurdle jump",12684.5300000277,"tangram","close","tangram-48.jpg","tangram-187.jpg","survey-text",22,171223,11,"hurdlejump"
"403","pilot2",13,"3HHRAGRYX9UFN7FO4UJEJH3XCCTO9G","faster",6292.38500003703,"tangram","close","tangram-55.jpg","N1.jpg","survey-text",23,178021,6,"fast"
"404","pilot2",13,"3HHRAGRYX9UFN7FO4UJEJH3XCCTO9G","ponytail",9915.59000004781,"tangram","close","A2.jpg","tangram-99.jpg","survey-text",24,188447,8,"ponytail"
"405","pilot2",13,"3HHRAGRYX9UFN7FO4UJEJH3XCCTO9G","long strides",4967.19500003383,"tangram","close","tangram-67.jpg","tangram-32.jpg","survey-text",25,193923,12,"longstride"
"406","pilot2",13,"3HHRAGRYX9UFN7FO4UJEJH3XCCTO9G","triangle",5425.96000002231,"tangram","close","tangram-90.jpg","tangram-81.jpg","survey-text",26,199853,8,"triangle"
"407","pilot2",13,"3HHRAGRYX9UFN7FO4UJEJH3XCCTO9G","kneeling",5692.54999997793,"tangram","close","H1.jpg","I1.jpg","survey-text",27,206063,8,"kneel"
"408","pilot2",13,"3HHRAGRYX9UFN7FO4UJEJH3XCCTO9G","sad",3894.19999998063,"tangram","close","B1.jpg","P1.jpg","survey-text",28,210467,3,"sad"
"409","pilot2",13,"3HHRAGRYX9UFN7FO4UJEJH3XCCTO9G","goldfish",2873.26000002213,"familiar","far","goldfish.jpg","iguana.jpg","survey-text",30,216814,8,"goldfish"
"410","pilot2",13,"3HHRAGRYX9UFN7FO4UJEJH3XCCTO9G","bird",2075.22499997867,"familiar","far","sparrow.jpg","squirrel.jpg","survey-text",31,219402,4,"bird"
"411","pilot2",13,"3HHRAGRYX9UFN7FO4UJEJH3XCCTO9G","polo",1961.06000000145,"familiar","far","poloshirt.jpg","dress.jpg","survey-text",32,221884,4,"polo"
"412","pilot2",13,"3HHRAGRYX9UFN7FO4UJEJH3XCCTO9G","table",1717.89499995066,"familiar","far","diningtable.jpg","wardrobe.jpg","survey-text",33,224110,5,"table"
"413","pilot2",13,"3HHRAGRYX9UFN7FO4UJEJH3XCCTO9G","car",1469.68999999808,"familiar","far","sedan.jpg","firetruck.jpg","survey-text",34,226087,3,"car"
"414","pilot2",13,"3HHRAGRYX9UFN7FO4UJEJH3XCCTO9G","dog",3254.94499999331,"familiar","far","germanshepherd.jpg","cow.jpg","survey-text",35,229864,3,"dog"
"415","pilot2",13,"3HHRAGRYX9UFN7FO4UJEJH3XCCTO9G","bear",1583.77000002656,"familiar","far","grizzlybear.jpg","lion.jpg","survey-text",36,231966,4,"bear"
"416","pilot2",13,"3HHRAGRYX9UFN7FO4UJEJH3XCCTO9G","chocolate",2173.87499997858,"familiar","far","mnms.jpg","pretzels.jpg","survey-text",37,234657,9,"chocolate"
"417","pilot2",13,"3HHRAGRYX9UFN7FO4UJEJH3XCCTO9G","sad walking",20585.7850000029,"tangram","far","B1.jpg","tangram-4.jpg","survey-text",39,257503,11,"sadwalk"
"418","pilot2",13,"3HHRAGRYX9UFN7FO4UJEJH3XCCTO9G","running",2493.6549999984,"tangram","far","tangram-67.jpg","G1.jpg","survey-text",40,260511,7,"run"
"419","pilot2",13,"3HHRAGRYX9UFN7FO4UJEJH3XCCTO9G","girl walking",2797.36999998568,"tangram","far","A2.jpg","C1.jpg","survey-text",41,263830,12,"girlwalk"
"420","pilot2",13,"3HHRAGRYX9UFN7FO4UJEJH3XCCTO9G","kicking",2507.03499995871,"tangram","far","tangram-48.jpg","D1.jpg","survey-text",42,266852,7,"kick"
"421","pilot2",13,"3HHRAGRYX9UFN7FO4UJEJH3XCCTO9G","dashing",1869.37999998918,"tangram","far","tangram-55.jpg","tangram-143.jpg","survey-text",43,269237,7,"dash"
"422","pilot2",13,"3HHRAGRYX9UFN7FO4UJEJH3XCCTO9G","arms out",7303.14500001259,"tangram","far","tangram-90.jpg","tangram-120.jpg","survey-text",44,277051,8,"armout"
"423","pilot2",13,"3HHRAGRYX9UFN7FO4UJEJH3XCCTO9G","kicking",2065.19500003196,"tangram","far","tangram-164.jpg","tangram-64.jpg","survey-text",45,279625,7,"kick"
"424","pilot2",13,"3HHRAGRYX9UFN7FO4UJEJH3XCCTO9G","kneeling",2271.53500000713,"tangram","far","H1.jpg","tangram-8.jpg","survey-text",46,282407,8,"kneel"
"425","pilot2",13,"3HHRAGRYX9UFN7FO4UJEJH3XCCTO9G","polo",3960.72500001173,"familiar","isolated","poloshirt.jpg","hawaiishirt.jpg","survey-text",48,288566,4,"polo"
"426","pilot2",13,"3HHRAGRYX9UFN7FO4UJEJH3XCCTO9G","goldfish",3845.34500003792,"familiar","isolated","goldfish.jpg","swordfish.jpg","survey-text",49,292931,8,"goldfish"
"427","pilot2",13,"3HHRAGRYX9UFN7FO4UJEJH3XCCTO9G","car",1782.75999997277,"familiar","isolated","sedan.jpg","sportscar.jpg","survey-text",50,295224,3,"car"
"428","pilot2",13,"3HHRAGRYX9UFN7FO4UJEJH3XCCTO9G","bear",1267.44000002509,"familiar","isolated","grizzlybear.jpg","polarbear.jpg","survey-text",51,297011,4,"bear"
"429","pilot2",13,"3HHRAGRYX9UFN7FO4UJEJH3XCCTO9G","table",1400.82500001881,"familiar","isolated","diningtable.jpg","picnictable.jpg","survey-text",52,298925,5,"table"
"430","pilot2",13,"3HHRAGRYX9UFN7FO4UJEJH3XCCTO9G","chocolate",1982.10000002291,"familiar","isolated","mnms.jpg","gummybears.jpg","survey-text",53,301429,9,"chocolate"
"431","pilot2",13,"3HHRAGRYX9UFN7FO4UJEJH3XCCTO9G","dog",1431.12499994459,"familiar","isolated","germanshepherd.jpg","pug.jpg","survey-text",54,303375,3,"dog"
"432","pilot2",13,"3HHRAGRYX9UFN7FO4UJEJH3XCCTO9G","bird",1429.65499998536,"familiar","isolated","sparrow.jpg","eagle.jpg","survey-text",55,305318,4,"bird"
"433","pilot2",14,"326O153BMJN5E6FGMWLK01S9ZV0EDH","dog",7023.91500025988,"familiar","isolated","germanshepherd.jpg","pug.jpg","survey-text",3,27860,3,"dog"
"434","pilot2",14,"326O153BMJN5E6FGMWLK01S9ZV0EDH","table",4183.16000001505,"familiar","isolated","diningtable.jpg","picnictable.jpg","survey-text",4,32548,5,"table"
"435","pilot2",14,"326O153BMJN5E6FGMWLK01S9ZV0EDH","candy",4141.41499996185,"familiar","isolated","mnms.jpg","gummybears.jpg","survey-text",5,37196,5,"candy"
"436","pilot2",14,"326O153BMJN5E6FGMWLK01S9ZV0EDH","bear",3330.19499992952,"familiar","isolated","grizzlybear.jpg","polarbear.jpg","survey-text",6,41032,4,"bear"
"437","pilot2",14,"326O153BMJN5E6FGMWLK01S9ZV0EDH","shirt",2962.50999998301,"familiar","isolated","poloshirt.jpg","hawaiishirt.jpg","survey-text",7,44499,5,"shirt"
"438","pilot2",14,"326O153BMJN5E6FGMWLK01S9ZV0EDH","bird",3985.06999993697,"familiar","isolated","sparrow.jpg","eagle.jpg","survey-text",8,48992,4,"bird"
"439","pilot2",14,"326O153BMJN5E6FGMWLK01S9ZV0EDH","car",2900.43999999762,"familiar","isolated","sedan.jpg","sportscar.jpg","survey-text",9,52405,3,"car"
"440","pilot2",14,"326O153BMJN5E6FGMWLK01S9ZV0EDH","fish",2105.93499988317,"familiar","isolated","goldfish.jpg","swordfish.jpg","survey-text",10,55025,4,"fish"
"441","pilot2",14,"326O153BMJN5E6FGMWLK01S9ZV0EDH","candy",5406.99000004679,"familiar","far","mnms.jpg","pretzels.jpg","survey-text",12,67978,5,"candy"
"442","pilot2",14,"326O153BMJN5E6FGMWLK01S9ZV0EDH","dog",2490.10000005364,"familiar","far","germanshepherd.jpg","cow.jpg","survey-text",13,70977,3,"dog"
"443","pilot2",14,"326O153BMJN5E6FGMWLK01S9ZV0EDH","table",2626.57500011846,"familiar","far","diningtable.jpg","wardrobe.jpg","survey-text",14,74116,5,"table"
"444","pilot2",14,"326O153BMJN5E6FGMWLK01S9ZV0EDH","bear",2048.09000017121,"familiar","far","grizzlybear.jpg","lion.jpg","survey-text",15,76672,4,"bear"
"445","pilot2",14,"326O153BMJN5E6FGMWLK01S9ZV0EDH","car",2391.31500013173,"familiar","far","sedan.jpg","firetruck.jpg","survey-text",16,79579,3,"car"
"446","pilot2",14,"326O153BMJN5E6FGMWLK01S9ZV0EDH","shirt",2354.67499960214,"familiar","far","poloshirt.jpg","dress.jpg","survey-text",17,82447,5,"shirt"
"447","pilot2",14,"326O153BMJN5E6FGMWLK01S9ZV0EDH","bird",2078.65999964997,"familiar","far","sparrow.jpg","squirrel.jpg","survey-text",18,85035,4,"bird"
"448","pilot2",14,"326O153BMJN5E6FGMWLK01S9ZV0EDH","fish",2162.32499992475,"familiar","far","goldfish.jpg","iguana.jpg","survey-text",19,87707,4,"fish"
"449","pilot2",14,"326O153BMJN5E6FGMWLK01S9ZV0EDH","man",4354.90499995649,"tangram","close","tangram-90.jpg","tangram-81.jpg","survey-text",21,100211,3,"man"
"450","pilot2",14,"326O153BMJN5E6FGMWLK01S9ZV0EDH","running",6636.00000040606,"tangram","close","tangram-67.jpg","tangram-32.jpg","survey-text",22,107356,7,"run"
"451","pilot2",14,"326O153BMJN5E6FGMWLK01S9ZV0EDH","kicking",2997.84500012174,"tangram","close","tangram-48.jpg","tangram-187.jpg","survey-text",23,110860,7,"kick"
"452","pilot2",14,"326O153BMJN5E6FGMWLK01S9ZV0EDH","walking",3053.64000005648,"tangram","close","A2.jpg","tangram-99.jpg","survey-text",24,114427,7,"walk"
"453","pilot2",14,"326O153BMJN5E6FGMWLK01S9ZV0EDH","sprinting",6051.07499985024,"tangram","close","tangram-55.jpg","N1.jpg","survey-text",25,120993,9,"sprint"
"454","pilot2",14,"326O153BMJN5E6FGMWLK01S9ZV0EDH","falling",2834.09499982372,"tangram","close","tangram-164.jpg","tangram-183.jpg","survey-text",26,124331,7,"fall"
"455","pilot2",14,"326O153BMJN5E6FGMWLK01S9ZV0EDH","holding",3171.55000008643,"tangram","close","H1.jpg","I1.jpg","survey-text",27,128015,7,"hold"
"456","pilot2",14,"326O153BMJN5E6FGMWLK01S9ZV0EDH","walking",3627.69499979913,"tangram","close","B1.jpg","P1.jpg","survey-text",28,132155,7,"walk"
"457","pilot2",14,"326O153BMJN5E6FGMWLK01S9ZV0EDH","table",1933.17999970168,"familiar","close","diningtable.jpg","picnictable.jpg","survey-text",30,137354,5,"table"
"458","pilot2",14,"326O153BMJN5E6FGMWLK01S9ZV0EDH","candy",2028.85499969125,"familiar","close","mnms.jpg","gummybears.jpg","survey-text",31,139891,5,"candy"
"459","pilot2",14,"326O153BMJN5E6FGMWLK01S9ZV0EDH","shirt",2441.73999968916,"familiar","close","poloshirt.jpg","hawaiishirt.jpg","survey-text",32,142843,5,"shirt"
"460","pilot2",14,"326O153BMJN5E6FGMWLK01S9ZV0EDH","car",1656.53500007465,"familiar","close","sedan.jpg","sportscar.jpg","survey-text",33,145007,3,"car"
"461","pilot2",14,"326O153BMJN5E6FGMWLK01S9ZV0EDH","bird",1915.53999995813,"familiar","close","sparrow.jpg","eagle.jpg","survey-text",34,147435,4,"bird"
"462","pilot2",14,"326O153BMJN5E6FGMWLK01S9ZV0EDH","fish",2808.6549998261,"familiar","close","goldfish.jpg","swordfish.jpg","survey-text",35,150758,4,"fish"
"463","pilot2",14,"326O153BMJN5E6FGMWLK01S9ZV0EDH","dog",2230.65500007942,"familiar","close","germanshepherd.jpg","pug.jpg","survey-text",36,153497,3,"dog"
"464","pilot2",14,"326O153BMJN5E6FGMWLK01S9ZV0EDH","bear",3172.19999991357,"familiar","close","grizzlybear.jpg","polarbear.jpg","survey-text",37,157177,4,"bear"
"465","pilot2",14,"326O153BMJN5E6FGMWLK01S9ZV0EDH","running",3844.95500009507,"tangram","far","tangram-55.jpg","tangram-143.jpg","survey-text",39,168110,7,"run"
"466","pilot2",14,"326O153BMJN5E6FGMWLK01S9ZV0EDH","running",2974.18999997899,"tangram","far","tangram-67.jpg","G1.jpg","survey-text",40,171594,7,"run"
"467","pilot2",14,"326O153BMJN5E6FGMWLK01S9ZV0EDH","walking",3097.60500025004,"tangram","far","B1.jpg","tangram-4.jpg","survey-text",41,175200,7,"walk"
"468","pilot2",14,"326O153BMJN5E6FGMWLK01S9ZV0EDH","falling",3141.88499981537,"tangram","far","tangram-164.jpg","tangram-64.jpg","survey-text",42,178851,7,"fall"
"469","pilot2",14,"326O153BMJN5E6FGMWLK01S9ZV0EDH","walking",2661.48999985307,"tangram","far","A2.jpg","C1.jpg","survey-text",43,182019,7,"walk"
"470","pilot2",14,"326O153BMJN5E6FGMWLK01S9ZV0EDH","holding",3044.04000006616,"tangram","far","H1.jpg","tangram-8.jpg","survey-text",44,185575,7,"hold"
"471","pilot2",14,"326O153BMJN5E6FGMWLK01S9ZV0EDH","walking",5500.95000024885,"tangram","far","tangram-90.jpg","tangram-120.jpg","survey-text",45,191584,7,"walk"
"472","pilot2",14,"326O153BMJN5E6FGMWLK01S9ZV0EDH","kicking",2220.32999992371,"tangram","far","tangram-48.jpg","D1.jpg","survey-text",46,194314,7,"kick"
"473","pilot2",14,"326O153BMJN5E6FGMWLK01S9ZV0EDH","running",4845.60000011697,"tangram","isolated","tangram-67.jpg","tangram-32.jpg","survey-text",48,202626,7,"run"
"474","pilot2",14,"326O153BMJN5E6FGMWLK01S9ZV0EDH","walking",2621.03499984369,"tangram","isolated","tangram-90.jpg","tangram-81.jpg","survey-text",49,205760,7,"walk"
"475","pilot2",14,"326O153BMJN5E6FGMWLK01S9ZV0EDH","walking",2729.35499995947,"tangram","isolated","B1.jpg","P1.jpg","survey-text",50,208998,7,"walk"
"476","pilot2",14,"326O153BMJN5E6FGMWLK01S9ZV0EDH","kicking",2319.05499985442,"tangram","isolated","tangram-48.jpg","tangram-187.jpg","survey-text",51,211826,7,"kick"
"477","pilot2",14,"326O153BMJN5E6FGMWLK01S9ZV0EDH","walking",2040.51000019535,"tangram","isolated","A2.jpg","tangram-99.jpg","survey-text",52,214382,7,"walk"
"478","pilot2",14,"326O153BMJN5E6FGMWLK01S9ZV0EDH","falling",2105.78500013798,"tangram","isolated","tangram-164.jpg","tangram-183.jpg","survey-text",53,216999,7,"fall"
"479","pilot2",14,"326O153BMJN5E6FGMWLK01S9ZV0EDH","holding",2126.20500009507,"tangram","isolated","H1.jpg","I1.jpg","survey-text",54,219638,7,"hold"
"480","pilot2",14,"326O153BMJN5E6FGMWLK01S9ZV0EDH","running",2439.79000020772,"tangram","isolated","tangram-55.jpg","N1.jpg","survey-text",55,222587,7,"run"
"481","pilot2",15,"3AMW0RGHOERIX9VJK4FYQI37R6RNPG","right kick",12635.3400000371,"tangram","close","tangram-164.jpg","tangram-183.jpg","survey-text",3,22778,10,"rightkick"
"482","pilot2",15,"3AMW0RGHOERIX9VJK4FYQI37R6RNPG","upright",6882.48999998905,"tangram","close","H1.jpg","I1.jpg","survey-text",4,30168,7,"upright"
"483","pilot2",15,"3AMW0RGHOERIX9VJK4FYQI37R6RNPG","left kick",4111.02499999106,"tangram","close","tangram-48.jpg","tangram-187.jpg","survey-text",5,34786,9,"leavekick"
"484","pilot2",15,"3AMW0RGHOERIX9VJK4FYQI37R6RNPG","right rush",3704.1550000431,"tangram","close","tangram-55.jpg","N1.jpg","survey-text",6,38994,10,"rightrush"
"485","pilot2",15,"3AMW0RGHOERIX9VJK4FYQI37R6RNPG","left throw",4914.07500003697,"tangram","close","A2.jpg","tangram-99.jpg","survey-text",7,44414,10,"leavethrow"
"486","pilot2",15,"3AMW0RGHOERIX9VJK4FYQI37R6RNPG","right jump",6538.52999996161,"tangram","close","tangram-67.jpg","tangram-32.jpg","survey-text",8,51459,10,"rightjump"
"487","pilot2",15,"3AMW0RGHOERIX9VJK4FYQI37R6RNPG","left down",3138.80000001518,"tangram","close","B1.jpg","P1.jpg","survey-text",9,55105,9,"leavedown"
"488","pilot2",15,"3AMW0RGHOERIX9VJK4FYQI37R6RNPG","open wide",5990.45500002103,"tangram","close","tangram-90.jpg","tangram-81.jpg","survey-text",10,61602,9,"openwide"
"489","pilot2",15,"3AMW0RGHOERIX9VJK4FYQI37R6RNPG","bear",4636.78499998059,"familiar","close","grizzlybear.jpg","polarbear.jpg","survey-text",12,67958,4,"bear"
"490","pilot2",15,"3AMW0RGHOERIX9VJK4FYQI37R6RNPG","dog",3003.33000003593,"familiar","close","germanshepherd.jpg","pug.jpg","survey-text",13,71469,3,"dog"
"491","pilot2",15,"3AMW0RGHOERIX9VJK4FYQI37R6RNPG","m&ms",3394.51999997254,"familiar","close","mnms.jpg","gummybears.jpg","survey-text",14,75369,4,"be&ms"
"492","pilot2",15,"3AMW0RGHOERIX9VJK4FYQI37R6RNPG","table",2390.83500002744,"familiar","close","diningtable.jpg","picnictable.jpg","survey-text",15,78270,5,"table"
"493","pilot2",15,"3AMW0RGHOERIX9VJK4FYQI37R6RNPG","bird",2103.66500000237,"familiar","close","sparrow.jpg","eagle.jpg","survey-text",16,80880,4,"bird"
"494","pilot2",15,"3AMW0RGHOERIX9VJK4FYQI37R6RNPG","blue car",3941.04000000516,"familiar","close","sedan.jpg","sportscar.jpg","survey-text",17,85331,8,"bluecar"
"495","pilot2",15,"3AMW0RGHOERIX9VJK4FYQI37R6RNPG","gold fish",4894.15999996709,"familiar","close","goldfish.jpg","swordfish.jpg","survey-text",18,90731,9,"goldfish"
"496","pilot2",15,"3AMW0RGHOERIX9VJK4FYQI37R6RNPG","blue collar",4607.8850000049,"familiar","close","poloshirt.jpg","hawaiishirt.jpg","survey-text",19,95845,11,"bluecollar"
"497","pilot2",15,"3AMW0RGHOERIX9VJK4FYQI37R6RNPG","left throw",5836.46000002045,"tangram","far","A2.jpg","C1.jpg","survey-text",21,103677,10,"leavethrow"
"498","pilot2",15,"3AMW0RGHOERIX9VJK4FYQI37R6RNPG","left kick",5369.20499999542,"tangram","far","tangram-48.jpg","D1.jpg","survey-text",22,109553,9,"leavekick"
"499","pilot2",15,"3AMW0RGHOERIX9VJK4FYQI37R6RNPG","right kick",4110.94999994384,"tangram","far","tangram-164.jpg","tangram-64.jpg","survey-text",23,114171,10,"rightkick"
"500","pilot2",15,"3AMW0RGHOERIX9VJK4FYQI37R6RNPG","open wide",4298.5950000002,"tangram","far","tangram-90.jpg","tangram-120.jpg","survey-text",24,118975,9,"openwide"
"501","pilot2",15,"3AMW0RGHOERIX9VJK4FYQI37R6RNPG","left down",3754.74999996368,"tangram","far","B1.jpg","tangram-4.jpg","survey-text",25,123238,9,"leavedown"
"502","pilot2",15,"3AMW0RGHOERIX9VJK4FYQI37R6RNPG","upright",3537.54499997012,"tangram","far","H1.jpg","tangram-8.jpg","survey-text",26,127282,7,"upright"
"503","pilot2",15,"3AMW0RGHOERIX9VJK4FYQI37R6RNPG","right rush",5052.39000002621,"tangram","far","tangram-55.jpg","tangram-143.jpg","survey-text",27,132842,10,"rightrush"
"504","pilot2",15,"3AMW0RGHOERIX9VJK4FYQI37R6RNPG","open wide",4644.41499998793,"tangram","far","tangram-67.jpg","G1.jpg","survey-text",28,137993,9,"openwide"
"505","pilot2",15,"3AMW0RGHOERIX9VJK4FYQI37R6RNPG","blue shirt",7150.1200000057,"familiar","isolated","poloshirt.jpg","hawaiishirt.jpg","survey-text",30,146973,10,"blueshirt"
"506","pilot2",15,"3AMW0RGHOERIX9VJK4FYQI37R6RNPG","blue caar",2711.5600000252,"familiar","isolated","sedan.jpg","sportscar.jpg","survey-text",31,150193,9,"bluecaar"
"507","pilot2",15,"3AMW0RGHOERIX9VJK4FYQI37R6RNPG","table",2182.8749999986,"familiar","isolated","diningtable.jpg","picnictable.jpg","survey-text",32,152881,5,"table"
"508","pilot2",15,"3AMW0RGHOERIX9VJK4FYQI37R6RNPG","mmms",3089.87500000512,"familiar","isolated","mnms.jpg","gummybears.jpg","survey-text",33,156478,4,"mmms"
"509","pilot2",15,"3AMW0RGHOERIX9VJK4FYQI37R6RNPG","gold fish",2654.39999999944,"familiar","isolated","goldfish.jpg","swordfish.jpg","survey-text",34,159640,9,"goldfish"
"510","pilot2",15,"3AMW0RGHOERIX9VJK4FYQI37R6RNPG","bear",1733.58499997994,"familiar","isolated","grizzlybear.jpg","polarbear.jpg","survey-text",35,161880,4,"bear"
"511","pilot2",15,"3AMW0RGHOERIX9VJK4FYQI37R6RNPG","dog",1769.28000000771,"familiar","isolated","germanshepherd.jpg","pug.jpg","survey-text",36,164157,3,"dog"
"512","pilot2",15,"3AMW0RGHOERIX9VJK4FYQI37R6RNPG","bird",1991.63000000408,"familiar","isolated","sparrow.jpg","eagle.jpg","survey-text",37,166655,4,"bird"
"513","pilot2",15,"3AMW0RGHOERIX9VJK4FYQI37R6RNPG","mms",2356.67500004638,"familiar","far","mnms.jpg","pretzels.jpg","survey-text",39,170680,3,"mm"
"514","pilot2",15,"3AMW0RGHOERIX9VJK4FYQI37R6RNPG","bear",1754.98500000685,"familiar","far","grizzlybear.jpg","lion.jpg","survey-text",40,172941,4,"bear"
"515","pilot2",15,"3AMW0RGHOERIX9VJK4FYQI37R6RNPG","table",1785.84500000579,"familiar","far","diningtable.jpg","wardrobe.jpg","survey-text",41,175234,5,"table"
"516","pilot2",15,"3AMW0RGHOERIX9VJK4FYQI37R6RNPG","blue",2180.66000001272,"familiar","far","poloshirt.jpg","dress.jpg","survey-text",42,177922,4,"blue"
"517","pilot2",15,"3AMW0RGHOERIX9VJK4FYQI37R6RNPG","bird",1812.08000000333,"familiar","far","sparrow.jpg","squirrel.jpg","survey-text",43,180239,4,"bird"
"518","pilot2",15,"3AMW0RGHOERIX9VJK4FYQI37R6RNPG","fish",2236.7249999661,"familiar","far","goldfish.jpg","iguana.jpg","survey-text",44,182983,4,"fish"
"519","pilot2",15,"3AMW0RGHOERIX9VJK4FYQI37R6RNPG","car",1934.85000001965,"familiar","far","sedan.jpg","firetruck.jpg","survey-text",45,185425,3,"car"
"520","pilot2",15,"3AMW0RGHOERIX9VJK4FYQI37R6RNPG","dog",1832.31500000693,"familiar","far","germanshepherd.jpg","cow.jpg","survey-text",46,187766,3,"dog"
"521","pilot2",15,"3AMW0RGHOERIX9VJK4FYQI37R6RNPG","up",3553.28999995254,"tangram","isolated","tangram-90.jpg","tangram-81.jpg","survey-text",48,193750,2,"up"
"522","pilot2",15,"3AMW0RGHOERIX9VJK4FYQI37R6RNPG","right",1849.91500002798,"tangram","isolated","tangram-55.jpg","N1.jpg","survey-text",49,196106,5,"right"
"523","pilot2",15,"3AMW0RGHOERIX9VJK4FYQI37R6RNPG","left",1651.91499999491,"tangram","isolated","tangram-48.jpg","tangram-187.jpg","survey-text",50,198264,4,"leave"
"524","pilot2",15,"3AMW0RGHOERIX9VJK4FYQI37R6RNPG","left",3040.67499999655,"tangram","isolated","A2.jpg","tangram-99.jpg","survey-text",51,201814,4,"leave"
"525","pilot2",15,"3AMW0RGHOERIX9VJK4FYQI37R6RNPG","right",2103.69999997783,"tangram","isolated","tangram-164.jpg","tangram-183.jpg","survey-text",52,204424,5,"right"
"526","pilot2",15,"3AMW0RGHOERIX9VJK4FYQI37R6RNPG","right",1697.54000002285,"tangram","isolated","tangram-67.jpg","tangram-32.jpg","survey-text",53,206628,5,"right"
"527","pilot2",15,"3AMW0RGHOERIX9VJK4FYQI37R6RNPG","left",1985.85499997716,"tangram","isolated","B1.jpg","P1.jpg","survey-text",54,209120,4,"leave"
"528","pilot2",15,"3AMW0RGHOERIX9VJK4FYQI37R6RNPG","upright",2418.26000000583,"tangram","isolated","H1.jpg","I1.jpg","survey-text",55,212045,7,"upright"
"529","pilot2",17,"3OLF68YTNAQZMDC0XXEOSI53QU7FAP","colorful candy",13057,"familiar","isolated","mnms.jpg","gummybears.jpg","survey-text",3,68541,14,"colorfulcandy"
"530","pilot2",17,"3OLF68YTNAQZMDC0XXEOSI53QU7FAP","new car",8684,"familiar","isolated","sedan.jpg","sportscar.jpg","survey-text",4,77736,7,"newcar"
"531","pilot2",17,"3OLF68YTNAQZMDC0XXEOSI53QU7FAP","dog stretching",11422,"familiar","isolated","germanshepherd.jpg","pug.jpg","survey-text",5,89666,14,"dogstretch"
"532","pilot2",17,"3OLF68YTNAQZMDC0XXEOSI53QU7FAP","polo shirt",8887,"familiar","isolated","poloshirt.jpg","hawaiishirt.jpg","survey-text",6,99060,10,"poloshirt"
"533","pilot2",17,"3OLF68YTNAQZMDC0XXEOSI53QU7FAP","goldfish",7140,"familiar","isolated","goldfish.jpg","swordfish.jpg","survey-text",7,106712,8,"goldfish"
"534","pilot2",17,"3OLF68YTNAQZMDC0XXEOSI53QU7FAP","long table",7995,"familiar","isolated","diningtable.jpg","picnictable.jpg","survey-text",8,115218,10,"longtable"
"535","pilot2",17,"3OLF68YTNAQZMDC0XXEOSI53QU7FAP","grizzly bear",7567.00000000001,"familiar","isolated","grizzlybear.jpg","polarbear.jpg","survey-text",9,123296,12,"grizzlybear"
"536","pilot2",17,"3OLF68YTNAQZMDC0XXEOSI53QU7FAP","small bird",9424,"familiar","isolated","sparrow.jpg","eagle.jpg","survey-text",10,133227,10,"smallbird"
"537","pilot2",17,"3OLF68YTNAQZMDC0XXEOSI53QU7FAP","orange",51284,"familiar","far","goldfish.jpg","iguana.jpg","survey-text",12,203153,6,"orange"
"538","pilot2",17,"3OLF68YTNAQZMDC0XXEOSI53QU7FAP","colorful",13816,"familiar","far","mnms.jpg","pretzels.jpg","survey-text",13,217481,8,"colorful"
"539","pilot2",17,"3OLF68YTNAQZMDC0XXEOSI53QU7FAP","pet",11293,"familiar","far","germanshepherd.jpg","cow.jpg","survey-text",14,229283,3,"pet"
"540","pilot2",17,"3OLF68YTNAQZMDC0XXEOSI53QU7FAP","fish eater",23293,"familiar","far","grizzlybear.jpg","lion.jpg","survey-text",15,253087,10,"fisheater"
"541","pilot2",17,"3OLF68YTNAQZMDC0XXEOSI53QU7FAP","mens apparel",27639,"familiar","far","poloshirt.jpg","dress.jpg","survey-text",16,281238,13,"mansapparel"
"542","pilot2",17,"3OLF68YTNAQZMDC0XXEOSI53QU7FAP","avian",16057,"familiar","far","sparrow.jpg","squirrel.jpg","survey-text",17,297806,5,"avian"
"543","pilot2",17,"3OLF68YTNAQZMDC0XXEOSI53QU7FAP","extended",33480,"familiar","far","diningtable.jpg","wardrobe.jpg","survey-text",18,331796,8,"extend"
"544","pilot2",17,"3OLF68YTNAQZMDC0XXEOSI53QU7FAP","home vehicle",13361,"familiar","far","sedan.jpg","firetruck.jpg","survey-text",19,345667,12,"homevehicle"
"545","pilot2",17,"3OLF68YTNAQZMDC0XXEOSI53QU7FAP","human like",15561,"tangram","far","B1.jpg","tangram-4.jpg","survey-text",21,375421,10,"humanlike"
"546","pilot2",17,"3OLF68YTNAQZMDC0XXEOSI53QU7FAP","figure walking",12662,"tangram","far","A2.jpg","C1.jpg","survey-text",22,388595,14,"figurewalk"
"547","pilot2",17,"3OLF68YTNAQZMDC0XXEOSI53QU7FAP","mid step",12863,"tangram","far","tangram-48.jpg","D1.jpg","survey-text",23,401970,8,"midstep"
"548","pilot2",17,"3OLF68YTNAQZMDC0XXEOSI53QU7FAP","mid stride",18730,"tangram","far","tangram-90.jpg","tangram-120.jpg","survey-text",24,421211,10,"midstride"
"549","pilot2",17,"3OLF68YTNAQZMDC0XXEOSI53QU7FAP","figure running",10679,"tangram","far","tangram-67.jpg","G1.jpg","survey-text",25,432400,14,"figurerun"
"550","pilot2",17,"3OLF68YTNAQZMDC0XXEOSI53QU7FAP","looking up",17694,"tangram","far","H1.jpg","tangram-8.jpg","survey-text",26,450606,10,"lookup"
"551","pilot2",17,"3OLF68YTNAQZMDC0XXEOSI53QU7FAP","figure running",12479.0000000001,"tangram","far","tangram-55.jpg","tangram-143.jpg","survey-text",27,463595,14,"figurerun"
"552","pilot2",17,"3OLF68YTNAQZMDC0XXEOSI53QU7FAP","crossed legs",11573.0000000001,"tangram","far","tangram-164.jpg","tangram-64.jpg","survey-text",28,475679,12,"crossleg"
"553","pilot2",17,"3OLF68YTNAQZMDC0XXEOSI53QU7FAP","figure walking",13299,"tangram","isolated","A2.jpg","tangram-99.jpg","survey-text",30,495379,14,"figurewalk"
"554","pilot2",17,"3OLF68YTNAQZMDC0XXEOSI53QU7FAP","figure stepping",20241.9999999999,"tangram","isolated","tangram-90.jpg","tangram-81.jpg","survey-text",31,516132,15,"figurestep"
"555","pilot2",17,"3OLF68YTNAQZMDC0XXEOSI53QU7FAP","figure walking",78691.0000000001,"tangram","isolated","tangram-48.jpg","tangram-187.jpg","survey-text",32,595332,14,"figurewalk"
"556","pilot2",17,"3OLF68YTNAQZMDC0XXEOSI53QU7FAP","figure running",7966.00000000012,"tangram","isolated","tangram-55.jpg","N1.jpg","survey-text",33,603807,14,"figurerun"
"557","pilot2",17,"3OLF68YTNAQZMDC0XXEOSI53QU7FAP","figure jumping",9503,"tangram","isolated","tangram-67.jpg","tangram-32.jpg","survey-text",34,613821,14,"figurejump"
"558","pilot2",17,"3OLF68YTNAQZMDC0XXEOSI53QU7FAP","figure sitting",26809.9999999999,"tangram","isolated","tangram-164.jpg","tangram-183.jpg","survey-text",35,641141,14,"figuresit"
"559","pilot2",17,"3OLF68YTNAQZMDC0XXEOSI53QU7FAP","figure praying",10413.0000000001,"tangram","isolated","H1.jpg","I1.jpg","survey-text",36,652062,14,"figurepray"
"560","pilot2",17,"3OLF68YTNAQZMDC0XXEOSI53QU7FAP","figure walking",9338,"tangram","isolated","B1.jpg","P1.jpg","survey-text",37,661906,14,"figurewalk"
"561","pilot2",17,"3OLF68YTNAQZMDC0XXEOSI53QU7FAP","wide step",12839,"tangram","close","A2.jpg","tangram-99.jpg","survey-text",39,678034,9,"widestep"
"562","pilot2",17,"3OLF68YTNAQZMDC0XXEOSI53QU7FAP","upright",11143,"tangram","close","tangram-164.jpg","tangram-183.jpg","survey-text",40,689687,7,"upright"
"563","pilot2",17,"3OLF68YTNAQZMDC0XXEOSI53QU7FAP","looking down",12362.0000000001,"tangram","close","B1.jpg","P1.jpg","survey-text",41,702560,12,"lookdown"
"564","pilot2",17,"3OLF68YTNAQZMDC0XXEOSI53QU7FAP","wide stride",10332,"tangram","close","tangram-67.jpg","tangram-32.jpg","survey-text",42,713405,11,"widestride"
"565","pilot2",17,"3OLF68YTNAQZMDC0XXEOSI53QU7FAP","playful",8930,"tangram","close","tangram-90.jpg","tangram-81.jpg","survey-text",43,722846,7,"playful"
"566","pilot2",17,"3OLF68YTNAQZMDC0XXEOSI53QU7FAP","leaning forward",16297,"tangram","close","tangram-48.jpg","tangram-187.jpg","survey-text",44,739654,15,"leanforward"
"567","pilot2",17,"3OLF68YTNAQZMDC0XXEOSI53QU7FAP","no legs",25231,"tangram","close","H1.jpg","I1.jpg","survey-text",45,765400,7,"noleg"
"568","pilot2",17,"3OLF68YTNAQZMDC0XXEOSI53QU7FAP","more narrow",18273,"tangram","close","tangram-55.jpg","N1.jpg","survey-text",46,784182,11,"muchnarrow"
"569","pilot2",17,"3OLF68YTNAQZMDC0XXEOSI53QU7FAP","facing left",13822,"familiar","close","germanshepherd.jpg","pug.jpg","survey-text",48,802514,11,"faceleave"
"570","pilot2",17,"3OLF68YTNAQZMDC0XXEOSI53QU7FAP","longest table",11107,"familiar","close","diningtable.jpg","picnictable.jpg","survey-text",49,814134,13,"longtable"
"571","pilot2",17,"3OLF68YTNAQZMDC0XXEOSI53QU7FAP","darkest fur",12084,"familiar","close","grizzlybear.jpg","polarbear.jpg","survey-text",50,826729,11,"darkfur"
"572","pilot2",17,"3OLF68YTNAQZMDC0XXEOSI53QU7FAP","smaller bird",23076,"familiar","close","sparrow.jpg","eagle.jpg","survey-text",51,850316,12,"smallbird"
"573","pilot2",17,"3OLF68YTNAQZMDC0XXEOSI53QU7FAP","small fish",11141,"familiar","close","goldfish.jpg","swordfish.jpg","survey-text",52,861967,10,"smallfish"
"574","pilot2",17,"3OLF68YTNAQZMDC0XXEOSI53QU7FAP","economy car",26421.9999999999,"familiar","close","sedan.jpg","sportscar.jpg","survey-text",53,888902,11,"economycar"
"575","pilot2",17,"3OLF68YTNAQZMDC0XXEOSI53QU7FAP","circular candy",11343,"familiar","close","mnms.jpg","gummybears.jpg","survey-text",54,900757,14,"circularcandy"
"576","pilot2",17,"3OLF68YTNAQZMDC0XXEOSI53QU7FAP","plain shirt",12366,"familiar","close","poloshirt.jpg","hawaiishirt.jpg","survey-text",55,913633,11,"plainshirt"
"577","pilot2",19,"3HQUKB7LNG3YAWBKYTCGCP4KJ3KHH8","running",13971,"tangram","close","tangram-55.jpg","N1.jpg","survey-text",3,65759,7,"run"
"578","pilot2",19,"3HQUKB7LNG3YAWBKYTCGCP4KJ3KHH8","seated",9898,"tangram","close","tangram-164.jpg","tangram-183.jpg","survey-text",4,76193,6,"seat"
"579","pilot2",19,"3HQUKB7LNG3YAWBKYTCGCP4KJ3KHH8","candle",13747,"tangram","close","H1.jpg","I1.jpg","survey-text",5,90482,6,"candle"
"580","pilot2",19,"3HQUKB7LNG3YAWBKYTCGCP4KJ3KHH8","boxy torso",20649,"tangram","close","tangram-48.jpg","tangram-187.jpg","survey-text",6,111662,10,"boxytorso"
"581","pilot2",19,"3HQUKB7LNG3YAWBKYTCGCP4KJ3KHH8","walking left",20729,"tangram","close","A2.jpg","tangram-99.jpg","survey-text",7,132921,12,"walkleave"
"582","pilot2",19,"3HQUKB7LNG3YAWBKYTCGCP4KJ3KHH8","triangle torso",12312,"tangram","close","tangram-90.jpg","tangram-81.jpg","survey-text",8,145763,14,"triangletorso"
"583","pilot2",19,"3HQUKB7LNG3YAWBKYTCGCP4KJ3KHH8","running figure",19094,"tangram","close","tangram-67.jpg","tangram-32.jpg","survey-text",9,165373,14,"runfigure"
"584","pilot2",19,"3HQUKB7LNG3YAWBKYTCGCP4KJ3KHH8","tilting left",17310,"tangram","close","B1.jpg","P1.jpg","survey-text",10,183226,12,"tiltleave"
"585","pilot2",19,"3HQUKB7LNG3YAWBKYTCGCP4KJ3KHH8","kicking figure",9679,"tangram","far","tangram-48.jpg","D1.jpg","survey-text",12,200786,14,"kickfigure"
"586","pilot2",19,"3HQUKB7LNG3YAWBKYTCGCP4KJ3KHH8","walking left",11169,"tangram","far","A2.jpg","C1.jpg","survey-text",13,212485,12,"walkleave"
"587","pilot2",19,"3HQUKB7LNG3YAWBKYTCGCP4KJ3KHH8","running figure",9733,"tangram","far","tangram-55.jpg","tangram-143.jpg","survey-text",14,222757,14,"runfigure"
"588","pilot2",19,"3HQUKB7LNG3YAWBKYTCGCP4KJ3KHH8","candle",9157,"tangram","far","H1.jpg","tangram-8.jpg","survey-text",15,232437,6,"candle"
"589","pilot2",19,"3HQUKB7LNG3YAWBKYTCGCP4KJ3KHH8","running figure",10878,"tangram","far","tangram-67.jpg","G1.jpg","survey-text",16,243842,14,"runfigure"
"590","pilot2",19,"3HQUKB7LNG3YAWBKYTCGCP4KJ3KHH8","triangular torso",12792,"tangram","far","tangram-90.jpg","tangram-120.jpg","survey-text",17,257187,16,"triangulartorso"
"591","pilot2",19,"3HQUKB7LNG3YAWBKYTCGCP4KJ3KHH8","seated figure",8201,"tangram","far","tangram-164.jpg","tangram-64.jpg","survey-text",18,265912,13,"seatfigure"
"592","pilot2",19,"3HQUKB7LNG3YAWBKYTCGCP4KJ3KHH8","walking left",8549,"tangram","far","B1.jpg","tangram-4.jpg","survey-text",19,275010,12,"walkleave"
"593","pilot2",19,"3HQUKB7LNG3YAWBKYTCGCP4KJ3KHH8","boxy torso",13099,"tangram","isolated","tangram-48.jpg","tangram-187.jpg","survey-text",21,294345,10,"boxytorso"
"594","pilot2",19,"3HQUKB7LNG3YAWBKYTCGCP4KJ3KHH8","candle",20464,"tangram","isolated","H1.jpg","I1.jpg","survey-text",22,315347,6,"candle"
"595","pilot2",19,"3HQUKB7LNG3YAWBKYTCGCP4KJ3KHH8","running figure",9136,"tangram","isolated","tangram-67.jpg","tangram-32.jpg","survey-text",23,325016,14,"runfigure"
"596","pilot2",19,"3HQUKB7LNG3YAWBKYTCGCP4KJ3KHH8","walking left",10966,"tangram","isolated","A2.jpg","tangram-99.jpg","survey-text",24,336513,12,"walkleave"
"597","pilot2",19,"3HQUKB7LNG3YAWBKYTCGCP4KJ3KHH8","seated figure",15022,"tangram","isolated","tangram-164.jpg","tangram-183.jpg","survey-text",25,352057,13,"seatfigure"
"598","pilot2",19,"3HQUKB7LNG3YAWBKYTCGCP4KJ3KHH8","triangular torso",11895,"tangram","isolated","tangram-90.jpg","tangram-81.jpg","survey-text",26,364490,16,"triangulartorso"
"599","pilot2",19,"3HQUKB7LNG3YAWBKYTCGCP4KJ3KHH8","running right",10364,"tangram","isolated","tangram-55.jpg","N1.jpg","survey-text",27,375388,13,"runright"
"600","pilot2",19,"3HQUKB7LNG3YAWBKYTCGCP4KJ3KHH8","walking left",7896,"tangram","isolated","B1.jpg","P1.jpg","survey-text",28,383817,12,"walkleave"
"601","pilot2",19,"3HQUKB7LNG3YAWBKYTCGCP4KJ3KHH8","table",10060,"familiar","close","diningtable.jpg","picnictable.jpg","survey-text",30,401519,5,"table"
"602","pilot2",19,"3HQUKB7LNG3YAWBKYTCGCP4KJ3KHH8","small bird",9105,"familiar","close","sparrow.jpg","eagle.jpg","survey-text",31,411156,10,"smallbird"
"603","pilot2",19,"3HQUKB7LNG3YAWBKYTCGCP4KJ3KHH8","m m",13352,"familiar","close","mnms.jpg","gummybears.jpg","survey-text",32,425047,3,"bebe"
"604","pilot2",19,"3HQUKB7LNG3YAWBKYTCGCP4KJ3KHH8","blue",10741,"familiar","close","sedan.jpg","sportscar.jpg","survey-text",33,436318,4,"blue"
"605","pilot2",19,"3HQUKB7LNG3YAWBKYTCGCP4KJ3KHH8","german shepherd",47094,"familiar","close","germanshepherd.jpg","pug.jpg","survey-text",34,483958,15,"germanshepherd"
"606","pilot2",19,"3HQUKB7LNG3YAWBKYTCGCP4KJ3KHH8","goldfish",5701,"familiar","close","goldfish.jpg","swordfish.jpg","survey-text",35,490177,8,"goldfish"
"607","pilot2",19,"3HQUKB7LNG3YAWBKYTCGCP4KJ3KHH8","grizzly",5286,"familiar","close","grizzlybear.jpg","polarbear.jpg","survey-text",36,496001,7,"grizzly"
"608","pilot2",19,"3HQUKB7LNG3YAWBKYTCGCP4KJ3KHH8","plain blue",6797,"familiar","close","poloshirt.jpg","hawaiishirt.jpg","survey-text",37,503327,10,"plainblue"
"609","pilot2",19,"3HQUKB7LNG3YAWBKYTCGCP4KJ3KHH8","grizzly",6064,"familiar","isolated","grizzlybear.jpg","polarbear.jpg","survey-text",39,719415,7,"grizzly"
"610","pilot2",19,"3HQUKB7LNG3YAWBKYTCGCP4KJ3KHH8","german shepherd",10628,"familiar","isolated","germanshepherd.jpg","pug.jpg","survey-text",40,730569,15,"germanshepherd"
"611","pilot2",19,"3HQUKB7LNG3YAWBKYTCGCP4KJ3KHH8","m m",5520,"familiar","isolated","mnms.jpg","gummybears.jpg","survey-text",41,736631,3,"bebe"
"612","pilot2",19,"3HQUKB7LNG3YAWBKYTCGCP4KJ3KHH8","small bird",8528,"familiar","isolated","sparrow.jpg","eagle.jpg","survey-text",42,745696,10,"smallbird"
