,iterationName,utterance,rt,target_type,competitor_type,target,foil,trial_type,trial_index,time_elapsed,anonymized_id,utt_length,clean_utt
879,testing,bird,6727.14,familiar,isolated,sparrow.jpg,eagle.jpg,survey-text,2,46057,5,4,bird
880,testing,dog,5525.765,familiar,isolated,germanshepherd.jpg,pug.jpg,survey-text,3,52111,5,3,dog
881,testing,car,7657.515,familiar,isolated,sedan.jpg,sportscar.jpg,survey-text,4,60297,5,3,car
882,testing,table,4079.29,familiar,isolated,diningtable.jpg,picnictable.jpg,survey-text,5,64889,5,5,table
883,testing,shirt,3603.325,familiar,isolated,poloshirt.jpg,hawaiishirt.jpg,survey-text,6,69035,5,5,shirt
884,testing,candy,4808.315,familiar,isolated,mnms.jpg,gummybears.jpg,survey-text,7,74386,5,5,candy
885,testing,fish,4257.355,familiar,isolated,goldfish.jpg,swordfish.jpg,survey-text,8,79168,5,4,fish
886,testing,bear,3955.855,familiar,isolated,grizzlybear.jpg,polarbear.jpg,survey-text,9,83642,5,4,bear
887,testing,shephard,7947.34,familiar,close,germanshepherd.jpg,pug.jpg,survey-text,11,97392,5,8,shephard
888,testing,sparrow,8154.99,familiar,close,sparrow.jpg,eagle.jpg,survey-text,12,106103,5,7,sparrow
889,testing,grizzly,5485,familiar,close,grizzlybear.jpg,polarbear.jpg,survey-text,13,112104,5,7,grizzly
890,testing,chocolate,5595.525,familiar,close,mnms.jpg,gummybears.jpg,survey-text,14,118227,5,9,chocolate
891,testing,gold,3599.225,familiar,close,goldfish.jpg,swordfish.jpg,survey-text,15,122348,5,4,gold
892,testing,blue,5916.99,familiar,close,sedan.jpg,sportscar.jpg,survey-text,16,128779,5,4,blue
893,testing,solid,5223.39,familiar,close,poloshirt.jpg,hawaiishirt.jpg,survey-text,17,134550,5,5,solid
894,testing,dining,12270.115,familiar,close,diningtable.jpg,picnictable.jpg,survey-text,18,147353,5,6,dine
895,testing,walk,8546.125,tangram,far,A1.jpg,D1.jpg,survey-text,20,162011,5,4,walk
896,testing,thinner,6821.965,tangram,far,K1.jpg,V1.jpg,survey-text,21,169382,5,7,thin
897,testing,taller,4857.595,tangram,far,G1.jpg,N1.jpg,survey-text,22,174763,5,6,tall
898,testing,larger,7113.245,tangram,far,F1.jpg,C1.jpg,survey-text,23,182407,5,6,large
899,testing,handing,6568.43,tangram,far,I1.jpg,R1.jpg,survey-text,24,189504,5,7,hand
900,testing,kneeling,7093.79,tangram,far,B1.jpg,O1.jpg,survey-text,25,197151,5,8,kneel
901,testing,jumping,5886.6,tangram,far,E1.jpg,C2.jpg,survey-text,26,203578,5,7,jump
902,testing,praying,5968.965,tangram,far,H1.jpg,A2.jpg,survey-text,27,210087,5,7,pray
903,testing,large,8752.16,tangram,isolated,E1.jpg,F1.jpg,survey-text,29,223189,5,5,large
904,testing,kneeling,6461.325,tangram,isolated,I1.jpg,J1.jpg,survey-text,30,230171,5,8,kneel
905,testing,praying,5107.78,tangram,isolated,H1.jpg,Y1.jpg,survey-text,31,235826,5,7,pray
906,testing,wide,4990.375,tangram,isolated,F1.jpg,W1.jpg,survey-text,32,241365,5,4,wide
907,testing,bending,9084.875,tangram,isolated,K1.jpg,T1.jpg,survey-text,33,250978,5,7,bend
908,testing,skipping,5922.28,tangram,isolated,A1.jpg,A2.jpg,survey-text,34,257433,5,8,skip
909,testing,sitting,5568.465,tangram,isolated,G1.jpg,M1.jpg,survey-text,35,263552,5,7,sit
910,testing,bending,7014.165,tangram,isolated,B1.jpg,P1.jpg,survey-text,36,271082,5,7,bend
911,testing,hat,12079.88,tangram,close,K1.jpg,T1.jpg,survey-text,38,285593,5,3,hat
912,testing,upwards,7174.975,tangram,close,I1.jpg,J1.jpg,survey-text,40,340686,5,7,upwards
913,testing,praying,11262.935,tangram,close,H1.jpg,Y1.jpg,survey-text,41,352485,5,7,pray
914,testing,larger,14849.93,tangram,close,F1.jpg,W1.jpg,survey-text,42,367849,5,6,large
915,testing,skinnier,5240.94,tangram,close,A1.jpg,A2.jpg,survey-text,43,373618,5,8,skinny
916,testing,taller,9303.61,tangram,close,E1.jpg,F1.jpg,survey-text,44,383468,5,6,tall
917,testing,bending,6877.285,tangram,close,B1.jpg,P1.jpg,survey-text,45,390876,5,7,bend
918,testing,dog,9677.54,familiar,far,germanshepherd.jpg,cow.jpg,survey-text,47,403763,5,3,dog
919,testing,fish,3617.715,familiar,far,goldfish.jpg,iguana.jpg,survey-text,48,407908,5,4,fish
920,testing,table,3686.285,familiar,far,diningtable.jpg,wardrobe.jpg,survey-text,49,412117,5,5,table
921,testing,grizzly,4694.64,familiar,far,grizzlybear.jpg,lion.jpg,survey-text,50,417331,5,7,grizzly
922,testing,chocolate,6308.68,familiar,far,mnms.jpg,pretzels.jpg,survey-text,51,424193,5,9,chocolate
923,testing,car,4173.235,familiar,far,sedan.jpg,firetruck.jpg,survey-text,52,428912,5,3,car
924,testing,polo,3984.07,familiar,far,poloshirt.jpg,dress.jpg,survey-text,53,433454,5,4,polo
925,testing,bird,5132.4,familiar,far,sparrow.jpg,squirrel.jpg,survey-text,54,439133,5,4,bird
326,testing,bear,10493,familiar,isolated,grizzlybear.jpg,polarbear.jpg,survey-text,2,69498,7,4,bear
327,testing,fish,8543,familiar,isolated,goldfish.jpg,swordfish.jpg,survey-text,3,78557,7,4,fish
328,testing,sparrow,10188,familiar,isolated,sparrow.jpg,eagle.jpg,survey-text,4,89254,7,7,sparrow
329,testing,table,11529,familiar,isolated,diningtable.jpg,picnictable.jpg,survey-text,5,101294,7,5,table
330,testing,car,6056,familiar,isolated,sedan.jpg,sportscar.jpg,survey-text,6,107866,7,3,car
331,testing,shirt,6128,familiar,isolated,poloshirt.jpg,hawaiishirt.jpg,survey-text,7,114506,7,5,shirt
332,testing,dog,5984,familiar,isolated,germanshepherd.jpg,pug.jpg,survey-text,8,121002,7,3,dog
333,testing,shapes,13215,tangram,close,G1.jpg,M1.jpg,survey-text,11,169387,7,6,shape
334,testing,dog,17707,tangram,close,K1.jpg,T1.jpg,survey-text,12,187609,7,3,dog
335,testing,human,19027,tangram,close,A1.jpg,A2.jpg,survey-text,13,207150,7,5,human
336,testing,house,10274,tangram,close,H1.jpg,Y1.jpg,survey-text,15,248324,7,5,house
339,testing,human,9458,tangram,close,B1.jpg,P1.jpg,survey-text,16,258312,7,5,human
343,testing,bat,9090,tangram,close,E1.jpg,F1.jpg,survey-text,17,267917,7,3,bat
347,testing,shark,17597,tangram,close,F1.jpg,W1.jpg,survey-text,18,286027,7,5,shark
351,testing,dog,9364,familiar,far,germanshepherd.jpg,cow.jpg,survey-text,20,303530,7,3,dog
353,testing,sparrow,7455,familiar,far,sparrow.jpg,squirrel.jpg,survey-text,21,311497,7,7,sparrow
356,testing,fish,6264,familiar,far,goldfish.jpg,iguana.jpg,survey-text,22,318271,7,4,fish
358,testing,table,7677,familiar,far,diningtable.jpg,wardrobe.jpg,survey-text,23,326477,7,5,table
360,testing,bear,7673,familiar,far,grizzlybear.jpg,lion.jpg,survey-text,24,334669,7,4,bear
372,testing,shirt,8914,familiar,far,poloshirt.jpg,dress.jpg,survey-text,26,439033,7,5,shirt
375,testing,car,6028,familiar,far,sedan.jpg,firetruck.jpg,survey-text,27,445572,7,3,car
382,testing,human,14010,tangram,isolated,B1.jpg,P1.jpg,survey-text,29,465082,7,5,human
386,testing,dog,8505,tangram,isolated,K1.jpg,T1.jpg,survey-text,30,474099,7,3,dog
388,testing,shark,6504,tangram,isolated,F1.jpg,W1.jpg,survey-text,31,481112,7,5,shark
392,testing,fish,9597,tangram,isolated,I1.jpg,J1.jpg,survey-text,32,491543,7,4,fish
395,testing,human,8387,tangram,isolated,A1.jpg,A2.jpg,survey-text,33,500446,7,5,human
399,testing,house,8288,tangram,isolated,H1.jpg,Y1.jpg,survey-text,34,509246,7,5,house
406,testing,bat,5965,tangram,isolated,E1.jpg,F1.jpg,survey-text,36,548933,7,3,bat
419,testing,goldfish,14617,familiar,close,goldfish.jpg,swordfish.jpg,survey-text,39,600128,7,8,goldfish
422,testing,car,11745,familiar,close,sedan.jpg,sportscar.jpg,survey-text,40,612386,7,3,car
424,testing,dog,15286,familiar,close,germanshepherd.jpg,pug.jpg,survey-text,41,628184,7,3,dog
427,testing,table,8650,familiar,close,diningtable.jpg,picnictable.jpg,survey-text,42,637348,7,5,table
435,testing,shirt,8011,familiar,close,poloshirt.jpg,hawaiishirt.jpg,survey-text,44,670297,7,5,shirt
437,testing,chocolates,8545,familiar,close,mnms.jpg,gummybears.jpg,survey-text,45,679353,7,10,chocolate
446,testing,human,11457,tangram,far,F1.jpg,C1.jpg,survey-text,48,715194,7,5,human
453,testing,human,15645,tangram,far,I1.jpg,R1.jpg,survey-text,49,731355,7,5,human
456,testing,human,10161,tangram,far,K1.jpg,V1.jpg,survey-text,50,742032,7,5,human
460,testing,human,6913,tangram,far,H1.jpg,A2.jpg,survey-text,51,749455,7,5,human
463,testing,human,5457,tangram,far,B1.jpg,O1.jpg,survey-text,52,755435,7,5,human
465,testing,human,8809,tangram,far,E1.jpg,C2.jpg,survey-text,53,764754,7,5,human
471,testing,human,7366,tangram,far,G1.jpg,N1.jpg,survey-text,54,772634,7,5,human
49,testing,m&m's,13513.585,familiar,close,mnms.jpg,gummybears.jpg,survey-text,2,665047,8,5,mnms
50,testing,finch,5314.62,familiar,close,sparrow.jpg,eagle.jpg,survey-text,3,670867,8,5,finch
51,testing,brown,6682.22,familiar,close,grizzlybear.jpg,polarbear.jpg,survey-text,4,678053,8,5,brown
52,testing,gold,5332.665,familiar,close,goldfish.jpg,swordfish.jpg,survey-text,5,683890,8,4,gold
53,testing,blue,3366.75,familiar,close,sedan.jpg,sportscar.jpg,survey-text,6,687761,8,4,blue
54,testing,german,3579.835,familiar,close,germanshepherd.jpg,pug.jpg,survey-text,7,691845,8,6,german
55,testing,indoor,4798.98,familiar,close,diningtable.jpg,picnictable.jpg,survey-text,8,697147,8,6,indoor
56,testing,polo,3689.16,familiar,close,poloshirt.jpg,hawaiishirt.jpg,survey-text,9,701340,8,4,polo
57,testing,run,5644.655,tangram,far,A1.jpg,D1.jpg,survey-text,11,713561,8,3,run
58,testing,leap,4257.345,tangram,far,E1.jpg,C2.jpg,survey-text,12,718321,8,4,leap
59,testing,sulk,7512.64,tangram,far,B1.jpg,O1.jpg,survey-text,13,726337,8,4,sulk
60,testing,lift,4273.55,tangram,far,F1.jpg,C1.jpg,survey-text,14,731114,8,4,lift
61,testing,pray,6631.89,tangram,far,H1.jpg,A2.jpg,survey-text,15,738250,8,4,pray
62,testing,sit,5081.98,tangram,far,G1.jpg,N1.jpg,survey-text,16,743835,8,3,sit
63,testing,eat,4232.085,tangram,far,I1.jpg,R1.jpg,survey-text,18,769275,8,3,eat
64,testing,sad,8967.105,tangram,isolated,B1.jpg,P1.jpg,survey-text,20,792314,8,3,sad
65,testing,leap,3620.45,tangram,isolated,E1.jpg,F1.jpg,survey-text,22,969579,8,4,leap
66,testing,skip,5388.95,tangram,isolated,A1.jpg,A2.jpg,survey-text,23,975471,8,4,skip
67,testing,lift,9075.24,tangram,isolated,F1.jpg,W1.jpg,survey-text,24,985051,8,4,lift
68,testing,pray,3755.28,tangram,isolated,H1.jpg,Y1.jpg,survey-text,25,989310,8,4,pray
69,testing,reach,3704.76,tangram,isolated,K1.jpg,T1.jpg,survey-text,26,993517,8,5,reach
70,testing,sit,2853.9,tangram,isolated,G1.jpg,M1.jpg,survey-text,27,996874,8,3,sit
71,testing,shirt,5158.775,familiar,far,poloshirt.jpg,dress.jpg,survey-text,29,1005012,8,5,shirt
72,testing,table,3072.05,familiar,far,diningtable.jpg,wardrobe.jpg,survey-text,30,1008587,8,5,table
73,testing,fish,3481.005,familiar,far,goldfish.jpg,iguana.jpg,survey-text,31,1012572,8,4,fish
74,testing,bear,2882.195,familiar,far,grizzlybear.jpg,lion.jpg,survey-text,32,1015958,8,4,bear
75,testing,bird,3531.205,familiar,far,sparrow.jpg,squirrel.jpg,survey-text,33,1019994,8,4,bird
76,testing,car,4956.37,familiar,far,sedan.jpg,firetruck.jpg,survey-text,35,1060953,8,3,car
77,testing,dog,2975.975,familiar,far,germanshepherd.jpg,cow.jpg,survey-text,36,1064434,8,3,dog
91,testing,lean,7288.825,tangram,close,K1.jpg,T1.jpg,survey-text,39,1134221,8,4,lean
92,testing,leap,4906.075,tangram,close,E1.jpg,F1.jpg,survey-text,40,1139630,8,4,leap
94,testing,sulk,3222.47,tangram,close,B1.jpg,P1.jpg,survey-text,41,1143356,8,4,sulk
96,testing,reach,3343.71,tangram,close,F1.jpg,W1.jpg,survey-text,42,1147203,8,5,reach
98,testing,offer,3312.215,tangram,close,H1.jpg,Y1.jpg,survey-text,43,1151019,8,5,offer
108,testing,bend,3869.11,tangram,close,I1.jpg,J1.jpg,survey-text,45,1197613,8,4,bend
112,testing,small,5944.415,familiar,isolated,sparrow.jpg,eagle.jpg,survey-text,47,1207045,8,5,small
114,testing,colorful,3758.91,familiar,isolated,mnms.jpg,gummybears.jpg,survey-text,48,1211307,8,8,colorful
188,testing,blue,2947.61,familiar,isolated,poloshirt.jpg,hawaiishirt.jpg,survey-text,50,1825500,8,4,blue
191,testing,bear,3767.96,familiar,isolated,grizzlybear.jpg,polarbear.jpg,survey-text,51,1829772,8,4,bear
194,testing,fish,3816.225,familiar,isolated,goldfish.jpg,swordfish.jpg,survey-text,52,1834092,8,4,fish
196,testing,table,4337.05,familiar,isolated,diningtable.jpg,picnictable.jpg,survey-text,53,1838932,8,5,table
198,testing,car,2952.42,familiar,isolated,sedan.jpg,sportscar.jpg,survey-text,54,1842388,8,3,car
436,testing,honda,10846.365,familiar,close,sedan.jpg,sportscar.jpg,survey-text,2,30659,9,5,honda
438,testing,circular,8352.18,familiar,close,mnms.jpg,gummybears.jpg,survey-text,3,39515,9,8,circular
440,testing,brown,4592.145,familiar,close,grizzlybear.jpg,polarbear.jpg,survey-text,4,44610,9,5,brown
442,testing,long,15184.97,familiar,close,diningtable.jpg,picnictable.jpg,survey-text,5,60298,9,4,long
444,testing,orange,6329.905,familiar,close,goldfish.jpg,swordfish.jpg,survey-text,6,67131,9,6,orange
449,testing,monochrome,10456.84,familiar,close,poloshirt.jpg,hawaiishirt.jpg,survey-text,7,78091,9,10,monochrome
451,testing,shepherd,6552.115,familiar,close,germanshepherd.jpg,pug.jpg,survey-text,8,85147,9,8,shepherd
454,testing,small,8000.62,familiar,close,sparrow.jpg,eagle.jpg,survey-text,9,93650,9,5,small
458,testing,standing,6201.765,tangram,far,G1.jpg,N1.jpg,survey-text,11,102891,9,8,stand
459,testing,begging,4384.22,tangram,far,H1.jpg,A2.jpg,survey-text,12,107779,9,7,beg
466,testing,leaning,15020.805,tangram,far,K1.jpg,V1.jpg,survey-text,13,123307,9,7,lean
469,testing,sad,5175.615,tangram,far,B1.jpg,O1.jpg,survey-text,14,128986,9,3,sad
472,testing,running,5081.075,tangram,far,A1.jpg,D1.jpg,survey-text,15,134570,9,7,run
476,testing,asking,7576.92,tangram,far,I1.jpg,R1.jpg,survey-text,16,142651,9,6,ask
479,testing,excited,6608.21,tangram,far,F1.jpg,C1.jpg,survey-text,17,149763,9,7,excite
480,testing,jumping,3520.13,tangram,far,E1.jpg,C2.jpg,survey-text,18,153786,9,7,jump
483,testing,begging,5209.185,tangram,isolated,H1.jpg,Y1.jpg,survey-text,20,161330,9,7,beg
485,testing,jumping,2632.45,tangram,isolated,E1.jpg,F1.jpg,survey-text,21,164466,9,7,jump
488,testing,excited,5052.79,tangram,isolated,F1.jpg,W1.jpg,survey-text,22,170026,9,7,excite
491,testing,standing,4568.09,tangram,isolated,G1.jpg,M1.jpg,survey-text,23,175098,9,8,stand
492,testing,asking,2721.635,tangram,isolated,I1.jpg,J1.jpg,survey-text,24,178322,9,6,ask
495,testing,leaning,3385.32,tangram,isolated,K1.jpg,T1.jpg,survey-text,25,182211,9,7,lean
497,testing,running,3503.845,tangram,isolated,A1.jpg,A2.jpg,survey-text,26,186219,9,7,run
499,testing,sad,1922.03,tangram,isolated,B1.jpg,P1.jpg,survey-text,27,188644,9,3,sad
502,testing,bear,3992.045,familiar,isolated,grizzlybear.jpg,polarbear.jpg,survey-text,29,194850,9,4,bear
504,testing,goldfish,5801.555,familiar,isolated,goldfish.jpg,swordfish.jpg,survey-text,30,201154,9,8,goldfish
506,testing,candy,8121.62,familiar,isolated,mnms.jpg,gummybears.jpg,survey-text,31,209779,9,5,candy
507,testing,honda,3087.455,familiar,isolated,sedan.jpg,sportscar.jpg,survey-text,32,213371,9,5,honda
509,testing,bird,4089.915,familiar,isolated,sparrow.jpg,eagle.jpg,survey-text,33,217964,9,4,bird
510,testing,shirt,3251.805,familiar,isolated,poloshirt.jpg,hawaiishirt.jpg,survey-text,34,221723,9,5,shirt
511,testing,table,2824.98,familiar,isolated,diningtable.jpg,picnictable.jpg,survey-text,35,225051,9,5,table
513,testing,dog,2920.535,familiar,isolated,germanshepherd.jpg,pug.jpg,survey-text,36,228475,9,3,dog
515,testing,leaning,7159.795,tangram,close,K1.jpg,T1.jpg,survey-text,38,237714,9,7,lean
517,testing,jumping,4978.275,tangram,close,E1.jpg,F1.jpg,survey-text,39,243196,9,7,jump
519,testing,sad,5657.15,tangram,close,G1.jpg,M1.jpg,survey-text,40,249355,9,3,sad
524,testing,excited,16447.67,tangram,close,F1.jpg,W1.jpg,survey-text,41,266307,9,7,excite
527,testing,running,7680.635,tangram,close,A1.jpg,A2.jpg,survey-text,42,274491,9,7,run
529,testing,sad,3976.545,tangram,close,B1.jpg,P1.jpg,survey-text,43,278971,9,3,sad
531,testing,begging,3664.115,tangram,close,H1.jpg,Y1.jpg,survey-text,44,283139,9,7,beg
533,testing,asking,2312.075,tangram,close,I1.jpg,J1.jpg,survey-text,45,285954,9,6,ask
535,testing,blue,4632.16,familiar,far,sedan.jpg,firetruck.jpg,survey-text,47,292643,9,4,blue
538,testing,fish,2536.725,familiar,far,goldfish.jpg,iguana.jpg,survey-text,48,295683,9,4,fish
540,testing,candy,3399.815,familiar,far,mnms.jpg,pretzels.jpg,survey-text,49,299586,9,5,candy
542,testing,shirt,2160.95,familiar,far,poloshirt.jpg,dress.jpg,survey-text,50,302251,9,5,shirt
543,testing,bear,1913.6,familiar,far,grizzlybear.jpg,lion.jpg,survey-text,51,304674,9,4,bear
544,testing,bird,1968.33,familiar,far,sparrow.jpg,squirrel.jpg,survey-text,52,307146,9,4,bird
545,testing,table,1760.215,familiar,far,diningtable.jpg,wardrobe.jpg,survey-text,53,309410,9,5,table
546,testing,dog,1449.545,familiar,far,germanshepherd.jpg,cow.jpg,survey-text,54,311363,9,3,dog
629,testing,logo,13659,tangram,isolated,I1.jpg,J1.jpg,survey-text,2,35887,10,4,logo
631,testing,logo,6986,tangram,isolated,H1.jpg,Y1.jpg,survey-text,3,43374,10,4,logo
633,testing,walkingperson,8755,tangram,isolated,B1.jpg,P1.jpg,survey-text,4,52631,10,13,walkingperson
635,testing,sittingperson,9569,tangram,isolated,E1.jpg,F1.jpg,survey-text,5,62711,10,13,sittingperson
637,testing,dancingman,8713,tangram,isolated,A1.jpg,A2.jpg,survey-text,6,71932,10,10,dancingman
640,testing,somethingflying,13733,tangram,isolated,F1.jpg,W1.jpg,survey-text,7,86169,10,15,somethingflying
641,testing,standingperson,9788,tangram,isolated,K1.jpg,T1.jpg,survey-text,8,96461,10,14,standingperson
643,testing,sittingwoman,6306,tangram,isolated,G1.jpg,M1.jpg,survey-text,9,103271,10,12,sittingwoman
646,testing,car,6694,familiar,close,sedan.jpg,sportscar.jpg,survey-text,11,114668,10,3,car
648,testing,goldenfish,7236,familiar,close,goldfish.jpg,swordfish.jpg,survey-text,12,122412,10,10,goldenfish
650,testing,bird,4772,familiar,close,sparrow.jpg,eagle.jpg,survey-text,13,127694,10,4,bird
651,testing,bear,4189,familiar,close,grizzlybear.jpg,polarbear.jpg,survey-text,14,132396,10,4,bear
653,testing,dog,4905,familiar,close,germanshepherd.jpg,pug.jpg,survey-text,15,137814,10,3,dog
655,testing,tshirt,8172,familiar,close,poloshirt.jpg,hawaiishirt.jpg,survey-text,16,146495,10,6,tshirt
657,testing,candy,5808,familiar,close,mnms.jpg,gummybears.jpg,survey-text,17,152810,10,5,candy
658,testing,table,4700,familiar,close,diningtable.jpg,picnictable.jpg,survey-text,18,158011,10,5,table
660,testing,candy,4072,familiar,isolated,mnms.jpg,gummybears.jpg,survey-text,20,169653,10,5,candy
661,testing,bear,3547,familiar,isolated,grizzlybear.jpg,polarbear.jpg,survey-text,21,173708,10,4,bear
663,testing,tshirt,4125,familiar,isolated,poloshirt.jpg,hawaiishirt.jpg,survey-text,22,178351,10,6,tshirt
664,testing,car,2636,familiar,isolated,sedan.jpg,sportscar.jpg,survey-text,23,181495,10,3,car
665,testing,dog,3246,familiar,isolated,germanshepherd.jpg,pug.jpg,survey-text,24,185249,10,3,dog
667,testing,bird,2934,familiar,isolated,sparrow.jpg,eagle.jpg,survey-text,25,188691,10,4,bird
668,testing,table,4854,familiar,isolated,diningtable.jpg,picnictable.jpg,survey-text,26,194049,10,5,table
670,testing,fish,3467,familiar,isolated,goldfish.jpg,swordfish.jpg,survey-text,27,198032,10,4,fish
672,testing,bear,4211,familiar,far,grizzlybear.jpg,lion.jpg,survey-text,29,207569,10,4,bear
673,testing,bird,3834,familiar,far,sparrow.jpg,squirrel.jpg,survey-text,30,211914,10,4,bird
674,testing,tshirt,4239,familiar,far,poloshirt.jpg,dress.jpg,survey-text,31,216673,10,6,tshirt
675,testing,dog,3211,familiar,far,germanshepherd.jpg,cow.jpg,survey-text,32,220391,10,3,dog
676,testing,candy,3533,familiar,far,mnms.jpg,pretzels.jpg,survey-text,33,224432,10,5,candy
677,testing,fish,3259,familiar,far,goldfish.jpg,iguana.jpg,survey-text,34,228208,10,4,fish
678,testing,table,3875,familiar,far,diningtable.jpg,wardrobe.jpg,survey-text,35,232591,10,5,table
679,testing,car,2637,familiar,far,sedan.jpg,firetruck.jpg,survey-text,36,235736,10,3,car
680,testing,standingperson,6175,tangram,far,K1.jpg,V1.jpg,survey-text,38,245935,10,14,standingperson
681,testing,runningperson,7425,tangram,far,F1.jpg,C1.jpg,survey-text,39,253873,10,13,runningperson
682,testing,dancingperon,6478,tangram,far,A1.jpg,D1.jpg,survey-text,40,260861,10,12,dancingperon
683,testing,walkingperson,10386,tangram,far,B1.jpg,O1.jpg,survey-text,41,271754,10,13,walkingperson
684,testing,man,7549,tangram,far,I1.jpg,R1.jpg,survey-text,42,279809,10,3,man
685,testing,sittingperson,8812,tangram,far,E1.jpg,C2.jpg,survey-text,43,289143,10,13,sittingperson
686,testing,sittingwoman,4753,tangram,far,G1.jpg,N1.jpg,survey-text,44,294402,10,12,sittingwoman
687,testing,sittingperson,12204,tangram,far,H1.jpg,A2.jpg,survey-text,45,307111,10,13,sittingperson
688,testing,sittingwoman,6879,tangram,close,G1.jpg,M1.jpg,survey-text,47,317821,10,12,sittingwoman
689,testing,sittingman,4182,tangram,close,E1.jpg,F1.jpg,survey-text,48,322511,10,10,sittingman
690,testing,runningone,6337,tangram,close,A1.jpg,A2.jpg,survey-text,49,329358,10,10,runningone
691,testing,sittingone,4583,tangram,close,H1.jpg,Y1.jpg,survey-text,50,334449,10,10,sittingone
692,testing,runningone,5497,tangram,close,F1.jpg,W1.jpg,survey-text,51,340449,10,10,runningone
693,testing,person,8472,tangram,close,I1.jpg,J1.jpg,survey-text,52,349427,10,6,person
694,testing,standingperson,6098,tangram,close,K1.jpg,T1.jpg,survey-text,53,356031,10,14,standingperson
695,testing,walkingperson,5256,tangram,close,B1.jpg,P1.jpg,survey-text,54,361788,10,13,walkingperson
426,testing,b,9120,familiar,isolated,grizzlybear.jpg,polarbear.jpg,survey-text,2,17138,13,1,b
428,testing,t,6031,familiar,isolated,poloshirt.jpg,hawaiishirt.jpg,survey-text,3,23672,13,1,t
430,testing,b,7007,familiar,isolated,diningtable.jpg,picnictable.jpg,survey-text,4,31212,13,1,b
431,testing,c,3800,familiar,isolated,sedan.jpg,sportscar.jpg,survey-text,5,35520,13,1,c
432,testing,f,3655,familiar,isolated,goldfish.jpg,swordfish.jpg,survey-text,6,39693,13,1,f
447,testing,bird,11554,familiar,isolated,sparrow.jpg,eagle.jpg,survey-text,8,101165,13,4,bird
450,testing,dog,3686,familiar,isolated,germanshepherd.jpg,pug.jpg,survey-text,9,105360,13,3,dog
462,testing,begger,6359,tangram,close,I1.jpg,J1.jpg,survey-text,12,136194,13,6,beggar
468,testing,sitting,11723,tangram,close,G1.jpg,M1.jpg,survey-text,13,148427,13,7,sit
473,testing,shadow,11452,tangram,close,K1.jpg,T1.jpg,survey-text,14,160388,13,6,shadow
475,testing,sad,4838,tangram,close,B1.jpg,P1.jpg,survey-text,15,165761,13,3,sad
478,testing,flying,6034,tangram,close,E1.jpg,F1.jpg,survey-text,16,172306,13,6,fly
482,testing,running,5767,tangram,close,A1.jpg,A2.jpg,survey-text,17,178578,13,7,run
486,testing,enloyable,8587,tangram,close,F1.jpg,W1.jpg,survey-text,18,187666,13,9,enjoyable
490,testing,run,5914,tangram,far,A1.jpg,D1.jpg,survey-text,20,197411,13,3,run
493,testing,sad,4131,tangram,far,B1.jpg,O1.jpg,survey-text,21,202053,13,3,sad
498,testing,sitting,9087,tangram,far,G1.jpg,N1.jpg,survey-text,22,211653,13,7,sit
500,testing,begger,4477,tangram,far,I1.jpg,R1.jpg,survey-text,23,216641,13,6,beggar
503,testing,standing,6567,tangram,far,K1.jpg,V1.jpg,survey-text,24,223743,13,8,stand
508,testing,enjoyable,15709,tangram,far,F1.jpg,C1.jpg,survey-text,25,239978,13,9,enjoyable
512,testing,enjoyable,7897,tangram,far,E1.jpg,C2.jpg,survey-text,26,248395,13,9,enjoyable
514,testing,sitting,6394,tangram,far,H1.jpg,A2.jpg,survey-text,27,255295,13,7,sit
516,testing,bench,5760,familiar,close,diningtable.jpg,picnictable.jpg,survey-text,29,265650,13,5,bench
518,testing,shirt,4126,familiar,close,poloshirt.jpg,hawaiishirt.jpg,survey-text,30,270293,13,5,shirt
520,testing,fish,2628,familiar,close,goldfish.jpg,swordfish.jpg,survey-text,31,273435,13,4,fish
521,testing,dog,2690,familiar,close,germanshepherd.jpg,pug.jpg,survey-text,32,276637,13,3,dog
522,testing,bird,3683,familiar,close,sparrow.jpg,eagle.jpg,survey-text,33,280827,13,4,bird
523,testing,bear,2776,familiar,close,grizzlybear.jpg,polarbear.jpg,survey-text,34,284114,13,4,bear
525,testing,chocolate,5752,familiar,close,mnms.jpg,gummybears.jpg,survey-text,35,290379,13,9,chocolate
526,testing,car,2124,familiar,close,sedan.jpg,sportscar.jpg,survey-text,36,293032,13,3,car
528,testing,dog,2453,familiar,far,germanshepherd.jpg,cow.jpg,survey-text,38,301634,13,3,dog
530,testing,chocolate,3254,familiar,far,mnms.jpg,pretzels.jpg,survey-text,39,305400,13,9,chocolate
532,testing,shirt,2914,familiar,far,poloshirt.jpg,dress.jpg,survey-text,40,308829,13,5,shirt
534,testing,bird,3330,familiar,far,sparrow.jpg,squirrel.jpg,survey-text,41,312679,13,4,bird
536,testing,bench,2860,familiar,far,diningtable.jpg,wardrobe.jpg,survey-text,42,316048,13,5,bench
537,testing,bear,1990,familiar,far,grizzlybear.jpg,lion.jpg,survey-text,43,318548,13,4,bear
539,testing,fish,2286,familiar,far,goldfish.jpg,iguana.jpg,survey-text,44,321345,13,4,fish
541,testing,car,1928,familiar,far,sedan.jpg,firetruck.jpg,survey-text,45,323779,13,3,car
547,testing,begging,8293,tangram,isolated,K1.jpg,T1.jpg,survey-text,47,334979,13,7,beg
548,testing,sitting,3145,tangram,isolated,G1.jpg,M1.jpg,survey-text,48,338637,13,7,sit
549,testing,enjoyable,7102,tangram,isolated,F1.jpg,W1.jpg,survey-text,49,346252,13,9,enjoyable
550,testing,begging,3720,tangram,isolated,I1.jpg,J1.jpg,survey-text,50,350476,13,7,beg
551,testing,walking,6615,tangram,isolated,A1.jpg,A2.jpg,survey-text,51,357637,13,7,walk
552,testing,begging,7554,tangram,isolated,H1.jpg,Y1.jpg,survey-text,52,365698,13,7,beg
553,testing,enjoyable,5503,tangram,isolated,E1.jpg,F1.jpg,survey-text,53,371716,13,9,enjoyable
554,testing,sa,2064,tangram,isolated,B1.jpg,P1.jpg,survey-text,54,374294,13,2,sa
696,testing,candy,10141.965,familiar,isolated,mnms.jpg,gummybears.jpg,survey-text,2,28858,14,5,candy
697,testing,bear,9782.455,familiar,isolated,grizzlybear.jpg,polarbear.jpg,survey-text,3,39159,14,4,bear
698,testing,dinning,12363.85,familiar,isolated,diningtable.jpg,picnictable.jpg,survey-text,4,52040,14,7,din
699,testing,swimmer,12005.72,familiar,isolated,goldfish.jpg,swordfish.jpg,survey-text,5,64568,14,7,swimmer
700,testing,travel,13802.135,familiar,isolated,sedan.jpg,sportscar.jpg,survey-text,6,78881,14,6,travel
701,testing,protection,7169.08,familiar,isolated,germanshepherd.jpg,pug.jpg,survey-text,7,86576,14,10,protection
702,testing,clothes,5436.655,familiar,isolated,poloshirt.jpg,hawaiishirt.jpg,survey-text,9,117331,14,7,clothe
703,testing,bend,14733.89,tangram,close,I1.jpg,J1.jpg,survey-text,11,137543,14,4,bend
704,testing,run,3508.755,tangram,close,A1.jpg,A2.jpg,survey-text,12,141559,14,3,run
705,testing,take,4525.1,tangram,close,H1.jpg,Y1.jpg,survey-text,13,146599,14,4,take
706,testing,walking,19214.44,tangram,close,B1.jpg,P1.jpg,survey-text,14,166320,14,7,walk
707,testing,bird,8570.89,tangram,close,F1.jpg,W1.jpg,survey-text,15,175413,14,4,bird
708,testing,jump,4482.02,tangram,close,E1.jpg,F1.jpg,survey-text,16,180406,14,4,jump
709,testing,reach,5546.485,tangram,close,K1.jpg,T1.jpg,survey-text,17,186469,14,5,reach
710,testing,sit,3238.97,tangram,close,G1.jpg,M1.jpg,survey-text,18,190240,14,3,sit
711,testing,run,15304.18,tangram,far,F1.jpg,C1.jpg,survey-text,20,208490,14,3,run
712,testing,skipping,5355.125,tangram,far,A1.jpg,D1.jpg,survey-text,21,214360,14,8,skip
713,testing,sitting,4669.495,tangram,far,G1.jpg,N1.jpg,survey-text,22,219545,14,7,sit
714,testing,follow,6549.55,tangram,far,B1.jpg,O1.jpg,survey-text,23,226600,14,6,follow
715,testing,give,6373.16,tangram,far,I1.jpg,R1.jpg,survey-text,24,233493,14,4,give
716,testing,take,4816.915,tangram,far,H1.jpg,A2.jpg,survey-text,25,238826,14,4,take
717,testing,forward,6550.335,tangram,far,K1.jpg,V1.jpg,survey-text,26,245888,14,7,forward
718,testing,leap,4786.07,tangram,far,E1.jpg,C2.jpg,survey-text,27,251190,14,4,leap
719,testing,baby,13279.09,familiar,close,sparrow.jpg,eagle.jpg,survey-text,29,267269,14,4,baby
720,testing,brown,10675.765,familiar,close,grizzlybear.jpg,polarbear.jpg,survey-text,30,278456,14,5,brown
721,testing,hard,5043.84,familiar,close,mnms.jpg,gummybears.jpg,survey-text,31,284017,14,4,hard
722,testing,long,3830,familiar,close,diningtable.jpg,picnictable.jpg,survey-text,32,288371,14,4,long
723,testing,big,5953.67,familiar,close,sedan.jpg,sportscar.jpg,survey-text,33,294842,14,3,big
724,testing,plain,6839.11,familiar,close,poloshirt.jpg,hawaiishirt.jpg,survey-text,34,302197,14,5,plain
725,testing,gold,4321.08,familiar,close,goldfish.jpg,swordfish.jpg,survey-text,35,307029,14,4,gold
726,testing,big,6688.285,familiar,close,germanshepherd.jpg,pug.jpg,survey-text,36,314222,14,3,big
727,testing,giving,8350.15,tangram,isolated,K1.jpg,T1.jpg,survey-text,38,324938,14,6,give
728,testing,receiving,9504.6,tangram,isolated,H1.jpg,Y1.jpg,survey-text,39,334955,14,9,receive
729,testing,running,4010.65,tangram,isolated,A1.jpg,A2.jpg,survey-text,40,339482,14,7,run
730,testing,leaping,3720.795,tangram,isolated,F1.jpg,W1.jpg,survey-text,41,343712,14,7,leap
731,testing,holding,6225.88,tangram,isolated,I1.jpg,J1.jpg,survey-text,42,350459,14,7,hold
732,testing,jumping,2788.42,tangram,isolated,E1.jpg,F1.jpg,survey-text,43,353762,14,7,jump
733,testing,sitting,2069.42,tangram,isolated,G1.jpg,M1.jpg,survey-text,44,356338,14,7,sit
734,testing,follwin,3063.16,tangram,isolated,B1.jpg,P1.jpg,survey-text,45,359908,14,7,follwin
735,testing,bear,8901.665,familiar,far,grizzlybear.jpg,lion.jpg,survey-text,47,372808,14,4,bear
736,testing,bird,2863.98,familiar,far,sparrow.jpg,squirrel.jpg,survey-text,48,376196,14,4,bird
737,testing,shirt,1945.955,familiar,far,poloshirt.jpg,dress.jpg,survey-text,49,378649,14,5,shirt
738,testing,car,1656.635,familiar,far,sedan.jpg,firetruck.jpg,survey-text,50,380821,14,3,car
739,testing,fish,1728.425,familiar,far,goldfish.jpg,iguana.jpg,survey-text,51,383062,14,4,fish
740,testing,dog,1726.355,familiar,far,germanshepherd.jpg,cow.jpg,survey-text,52,385295,14,3,dog
741,testing,table,5853.025,familiar,far,diningtable.jpg,wardrobe.jpg,survey-text,53,391656,14,5,table
742,testing,candy,5242.385,familiar,far,mnms.jpg,pretzels.jpg,survey-text,54,397406,14,5,candy
367,testing,chair,10445.02,familiar,close,diningtable.jpg,picnictable.jpg,survey-text,2,34483,15,5,chair
369,testing,bird,5985.97,familiar,close,sparrow.jpg,eagle.jpg,survey-text,3,40983,15,4,bird
373,testing,dog,14269.775,familiar,close,grizzlybear.jpg,polarbear.jpg,survey-text,4,55767,15,3,dog
377,testing,dog,6067.69,familiar,close,germanshepherd.jpg,pug.jpg,survey-text,5,62345,15,3,dog
379,testing,shirt,5366.415,familiar,close,poloshirt.jpg,hawaiishirt.jpg,survey-text,6,68223,15,5,shirt
381,testing,fish,10332.605,familiar,close,goldfish.jpg,swordfish.jpg,survey-text,7,79064,15,4,fish
384,testing,car,4869.265,familiar,close,sedan.jpg,sportscar.jpg,survey-text,8,84443,15,3,car
387,testing,candy,11030.02,familiar,close,mnms.jpg,gummybears.jpg,survey-text,9,95986,15,5,candy
390,testing,bird,7357.755,familiar,isolated,sparrow.jpg,eagle.jpg,survey-text,11,106184,15,4,bird
394,testing,shirt,6708.515,familiar,isolated,poloshirt.jpg,hawaiishirt.jpg,survey-text,12,113405,15,5,shirt
397,testing,dog,6808.4,familiar,isolated,germanshepherd.jpg,pug.jpg,survey-text,13,120726,15,3,dog
401,testing,fish,13680.85,familiar,isolated,goldfish.jpg,swordfish.jpg,survey-text,14,134912,15,4,fish
402,testing,deer,9190.58,familiar,isolated,grizzlybear.jpg,polarbear.jpg,survey-text,15,144612,15,4,deer
403,testing,chair,6142.61,familiar,isolated,diningtable.jpg,picnictable.jpg,survey-text,16,151263,15,5,chair
404,testing,car,5006.615,familiar,isolated,sedan.jpg,sportscar.jpg,survey-text,17,156777,15,3,car
405,testing,candy,5190.075,familiar,isolated,mnms.jpg,gummybears.jpg,survey-text,18,162485,15,5,candy
407,testing,chair,9383.8,familiar,far,diningtable.jpg,wardrobe.jpg,survey-text,20,175984,15,5,chair
409,testing,animal,13220.55,familiar,far,sparrow.jpg,squirrel.jpg,survey-text,21,189711,15,6,animal
411,testing,dress,5122.845,familiar,far,poloshirt.jpg,dress.jpg,survey-text,22,195343,15,5,dress
416,testing,snacks,11260.49,familiar,far,mnms.jpg,pretzels.jpg,survey-text,23,207122,15,6,snack
421,testing,animal,15808.23,familiar,far,goldfish.jpg,iguana.jpg,survey-text,24,223442,15,6,animal
423,testing,animal,19030.97,familiar,far,germanshepherd.jpg,cow.jpg,survey-text,25,242983,15,6,animal
425,testing,vechicle,6252.215,familiar,far,sedan.jpg,firetruck.jpg,survey-text,26,249742,15,8,vechicle
429,testing,animal,7619.375,familiar,far,grizzlybear.jpg,lion.jpg,survey-text,27,257883,15,6,animal
433,testing,logo,14534.21,tangram,isolated,E1.jpg,F1.jpg,survey-text,29,275785,15,4,logo
434,testing,logo,6808.835,tangram,isolated,F1.jpg,W1.jpg,survey-text,30,283103,15,4,logo
439,testing,graduate,13982.32,tangram,isolated,H1.jpg,Y1.jpg,survey-text,31,297595,15,8,graduate
441,testing,man,8159.905,tangram,isolated,I1.jpg,J1.jpg,survey-text,32,306265,15,3,man
443,testing,dance,12352.52,tangram,isolated,A1.jpg,A2.jpg,survey-text,33,319127,15,5,dance
445,testing,dog,6558.765,tangram,isolated,K1.jpg,T1.jpg,survey-text,34,326194,15,3,dog
448,testing,women,8300.86,tangram,isolated,G1.jpg,M1.jpg,survey-text,35,335013,15,5,woman
452,testing,step,10177.575,tangram,isolated,B1.jpg,P1.jpg,survey-text,36,345703,15,4,step
455,testing,run,4765.06,tangram,far,I1.jpg,R1.jpg,survey-text,38,353357,15,3,run
457,testing,step,5693.6,tangram,far,B1.jpg,O1.jpg,survey-text,39,359564,15,4,step
461,testing,dance,5164.38,tangram,far,E1.jpg,C2.jpg,survey-text,40,365240,15,5,dance
464,testing,run,5057.185,tangram,far,K1.jpg,V1.jpg,survey-text,41,370807,15,3,run
467,testing,dance,10603.53,tangram,far,H1.jpg,A2.jpg,survey-text,42,381924,15,5,dance
470,testing,dance,5296.275,tangram,far,G1.jpg,N1.jpg,survey-text,43,387731,15,5,dance
474,testing,pray,6642.7,tangram,far,F1.jpg,C1.jpg,survey-text,44,394884,15,4,pray
477,testing,human,8927.52,tangram,far,A1.jpg,D1.jpg,survey-text,45,404326,15,5,human
481,testing,beg,4824.84,tangram,close,K1.jpg,T1.jpg,survey-text,47,412193,15,3,beg
484,testing,dance,6182.65,tangram,close,E1.jpg,F1.jpg,survey-text,48,418884,15,5,dance
487,testing,dance,4419.755,tangram,close,F1.jpg,W1.jpg,survey-text,49,423824,15,5,dance
489,testing,human,5171.48,tangram,close,G1.jpg,M1.jpg,survey-text,50,429505,15,5,human
494,testing,step,6227.265,tangram,close,A1.jpg,A2.jpg,survey-text,51,436243,15,4,step
496,testing,pray,6244.03,tangram,close,I1.jpg,J1.jpg,survey-text,52,443000,15,4,pray
501,testing,pray,7296.01,tangram,close,H1.jpg,Y1.jpg,survey-text,53,450823,15,4,pray
505,testing,stand,9624.96,tangram,close,B1.jpg,P1.jpg,survey-text,54,460958,15,5,stand
337,testing,shirt,4694.54,familiar,isolated,poloshirt.jpg,hawaiishirt.jpg,survey-text,2,21713,16,5,shirt
338,testing,bear,3494.485,familiar,isolated,grizzlybear.jpg,polarbear.jpg,survey-text,3,25713,16,4,bear
340,testing,dog,3256.165,familiar,isolated,germanshepherd.jpg,pug.jpg,survey-text,4,29473,16,3,dog
341,testing,car,2542.655,familiar,isolated,sedan.jpg,sportscar.jpg,survey-text,5,32521,16,3,car
342,testing,table,3385,familiar,isolated,diningtable.jpg,picnictable.jpg,survey-text,6,36417,16,5,table
344,testing,fish,3207.185,familiar,isolated,goldfish.jpg,swordfish.jpg,survey-text,7,40128,16,4,fish
345,testing,candy,3794.765,familiar,isolated,mnms.jpg,gummybears.jpg,survey-text,8,44432,16,5,candy
346,testing,bird,5784.07,familiar,isolated,sparrow.jpg,eagle.jpg,survey-text,9,50721,16,4,bird
348,testing,bird,8950.085,familiar,far,sparrow.jpg,squirrel.jpg,survey-text,11,64025,16,4,bird
349,testing,dog,3678.945,familiar,far,germanshepherd.jpg,cow.jpg,survey-text,12,68209,16,3,dog
350,testing,shirt,2880.2,familiar,far,poloshirt.jpg,dress.jpg,survey-text,13,71594,16,5,shirt
352,testing,fish,5149.59,familiar,far,goldfish.jpg,iguana.jpg,survey-text,14,77249,16,4,fish
354,testing,candy,4159.375,familiar,far,mnms.jpg,pretzels.jpg,survey-text,15,81912,16,5,candy
355,testing,bear,4208.63,familiar,far,grizzlybear.jpg,lion.jpg,survey-text,16,86626,16,4,bear
357,testing,car,7621.465,familiar,far,sedan.jpg,firetruck.jpg,survey-text,17,94753,16,3,car
359,testing,table,4531.985,familiar,far,diningtable.jpg,wardrobe.jpg,survey-text,18,99793,16,5,table
361,testing,bend,8799.54,tangram,far,K1.jpg,V1.jpg,survey-text,21,133609,16,4,bend
362,testing,walk,5375.08,tangram,far,B1.jpg,O1.jpg,survey-text,22,139489,16,4,walk
363,testing,celebrate,8508.945,tangram,far,E1.jpg,C2.jpg,survey-text,23,148505,16,9,celebrate
364,testing,frolick,15438.405,tangram,far,A1.jpg,D1.jpg,survey-text,24,164448,16,7,frolick
365,testing,splits,12494.21,tangram,far,F1.jpg,C1.jpg,survey-text,25,177449,16,6,split
366,testing,pray,6335.34,tangram,far,H1.jpg,A2.jpg,survey-text,26,184289,16,4,pray
368,testing,serve,4990.405,tangram,far,I1.jpg,R1.jpg,survey-text,27,189784,16,5,serve
370,testing,celebrate,7681.615,tangram,close,E1.jpg,F1.jpg,survey-text,29,199433,16,9,celebrate
371,testing,bend,4920.545,tangram,close,K1.jpg,T1.jpg,survey-text,30,204864,16,4,bend
374,testing,walk,7416.14,tangram,close,B1.jpg,P1.jpg,survey-text,31,212785,16,4,walk
376,testing,splits,3823.54,tangram,close,F1.jpg,W1.jpg,survey-text,32,217114,16,6,split
378,testing,sit,3134.05,tangram,close,G1.jpg,M1.jpg,survey-text,33,220753,16,3,sit
380,testing,frolick,4175.07,tangram,close,A1.jpg,A2.jpg,survey-text,34,225433,16,7,frolick
383,testing,pray,10556.275,tangram,close,H1.jpg,Y1.jpg,survey-text,35,236496,16,4,pray
385,testing,serve,2912.665,tangram,close,I1.jpg,J1.jpg,survey-text,36,239914,16,5,serve
389,testing,m&m,9815.705,familiar,close,mnms.jpg,gummybears.jpg,survey-text,38,251625,16,3,mnms
391,testing,wren,9294.81,familiar,close,sparrow.jpg,eagle.jpg,survey-text,39,261425,16,4,wren
393,testing,shepherd,4101.485,familiar,close,germanshepherd.jpg,pug.jpg,survey-text,40,266033,16,8,shepherd
396,testing,goldfish,4932.28,familiar,close,goldfish.jpg,swordfish.jpg,survey-text,41,271473,16,8,goldfish
398,testing,grizzly,4520.165,familiar,close,grizzlybear.jpg,polarbear.jpg,survey-text,42,276497,16,7,grizzly
400,testing,table,10351,familiar,close,diningtable.jpg,picnictable.jpg,survey-text,43,287353,16,5,table
408,testing,sedan,6488.48,familiar,close,sedan.jpg,sportscar.jpg,survey-text,45,338809,16,5,sedan
410,testing,splits,5980.47,tangram,isolated,F1.jpg,W1.jpg,survey-text,47,346648,16,6,split
412,testing,celebrate,3160.375,tangram,isolated,E1.jpg,F1.jpg,survey-text,48,350312,16,9,celebrate
413,testing,bend,4031.005,tangram,isolated,K1.jpg,T1.jpg,survey-text,49,354848,16,4,bend
414,testing,pray,2447.43,tangram,isolated,H1.jpg,Y1.jpg,survey-text,50,357799,16,4,pray
415,testing,sit,3184.58,tangram,isolated,G1.jpg,M1.jpg,survey-text,51,361488,16,3,sit
417,testing,frolick,2543.23,tangram,isolated,A1.jpg,A2.jpg,survey-text,52,364535,16,7,frolick
418,testing,serve,2776.295,tangram,isolated,I1.jpg,J1.jpg,survey-text,53,367816,16,5,serve
420,testing,walk,2377.12,tangram,isolated,B1.jpg,P1.jpg,survey-text,54,370698,16,4,walk
743,testing,shapes,17310,tangram,isolated,G1.jpg,M1.jpg,survey-text,2,206302,17,6,shape
744,testing,square,19920,tangram,isolated,E1.jpg,F1.jpg,survey-text,3,226781,17,6,square
745,testing,running,8725,tangram,isolated,A1.jpg,A2.jpg,survey-text,5,279522,17,7,run
746,testing,walking,18981,tangram,isolated,F1.jpg,W1.jpg,survey-text,6,299084,17,7,walk
747,testing,bending,6787,tangram,isolated,B1.jpg,P1.jpg,survey-text,7,306402,17,7,bend
748,testing,bending,13490,tangram,isolated,I1.jpg,J1.jpg,survey-text,8,320428,17,7,bend
749,testing,reading,7564,tangram,isolated,H1.jpg,Y1.jpg,survey-text,9,328547,17,7,read
750,testing,dog,13968,familiar,far,germanshepherd.jpg,cow.jpg,survey-text,11,348206,17,3,dog
751,testing,table,6363,familiar,far,diningtable.jpg,wardrobe.jpg,survey-text,12,355090,17,5,table
752,testing,car,5166,familiar,far,sedan.jpg,firetruck.jpg,survey-text,14,406595,17,3,car
753,testing,shirt,8062,familiar,far,poloshirt.jpg,dress.jpg,survey-text,15,415194,17,5,shirt
754,testing,sweet,12317,familiar,far,mnms.jpg,pretzels.jpg,survey-text,16,428031,17,5,sweet
755,testing,fish,5161,familiar,far,goldfish.jpg,iguana.jpg,survey-text,17,433712,17,4,fish
756,testing,sitting,8790,tangram,close,E1.jpg,F1.jpg,survey-text,20,471292,17,7,sit
757,testing,readinf,17013,tangram,close,H1.jpg,Y1.jpg,survey-text,21,488824,17,7,readinf
758,testing,bending,13386,tangram,close,K1.jpg,T1.jpg,survey-text,22,502803,17,7,bend
759,testing,running,6570,tangram,close,A1.jpg,A2.jpg,survey-text,23,509901,17,7,run
760,testing,bending,6460,tangram,close,B1.jpg,P1.jpg,survey-text,24,516900,17,7,bend
761,testing,sitting,8372,tangram,close,G1.jpg,M1.jpg,survey-text,25,525794,17,7,sit
762,testing,bending,9162,tangram,close,I1.jpg,J1.jpg,survey-text,26,535481,17,7,bend
763,testing,running,7416,tangram,close,F1.jpg,W1.jpg,survey-text,27,543441,17,7,run
764,testing,sweet,5038,familiar,close,mnms.jpg,gummybears.jpg,survey-text,29,552097,17,5,sweet
765,testing,bird,7773,familiar,close,sparrow.jpg,eagle.jpg,survey-text,30,560395,17,4,bird
766,testing,shirt,7381,familiar,close,poloshirt.jpg,hawaiishirt.jpg,survey-text,31,568290,17,5,shirt
767,testing,dog,5211,familiar,close,germanshepherd.jpg,pug.jpg,survey-text,32,574021,17,3,dog
768,testing,fish,6513,familiar,close,goldfish.jpg,swordfish.jpg,survey-text,33,581137,17,4,fish
769,testing,table,5852,familiar,close,diningtable.jpg,picnictable.jpg,survey-text,34,587504,17,5,table
770,testing,bear,6914,familiar,close,grizzlybear.jpg,polarbear.jpg,survey-text,35,594953,17,4,bear
771,testing,car,7456,familiar,close,sedan.jpg,sportscar.jpg,survey-text,36,602987,17,3,car
772,testing,dog,7415,familiar,isolated,germanshepherd.jpg,pug.jpg,survey-text,38,613828,17,3,dog
773,testing,shirt,6244,familiar,isolated,poloshirt.jpg,hawaiishirt.jpg,survey-text,39,620628,17,5,shirt
774,testing,fish,5610,familiar,isolated,goldfish.jpg,swordfish.jpg,survey-text,40,626799,17,4,fish
775,testing,sweet,5282,familiar,isolated,mnms.jpg,gummybears.jpg,survey-text,41,632607,17,5,sweet
776,testing,car,6770,familiar,isolated,sedan.jpg,sportscar.jpg,survey-text,42,639905,17,3,car
777,testing,bird,6487,familiar,isolated,sparrow.jpg,eagle.jpg,survey-text,43,646929,17,4,bird
778,testing,bear,4922,familiar,isolated,grizzlybear.jpg,polarbear.jpg,survey-text,44,652389,17,4,bear
779,testing,table,4455,familiar,isolated,diningtable.jpg,picnictable.jpg,survey-text,45,657369,17,5,table
780,testing,running,6382,tangram,far,A1.jpg,D1.jpg,survey-text,47,666933,17,7,run
781,testing,sitting,5626,tangram,far,G1.jpg,N1.jpg,survey-text,48,673076,17,7,sit
782,testing,bending,5907,tangram,far,K1.jpg,V1.jpg,survey-text,49,679503,17,7,bend
783,testing,walking,17869,tangram,far,F1.jpg,C1.jpg,survey-text,50,697907,17,7,walk
784,testing,bending,8911,tangram,far,B1.jpg,O1.jpg,survey-text,52,737550,17,7,bend
785,testing,reading,9894,tangram,far,I1.jpg,R1.jpg,survey-text,53,748013,17,7,read
786,testing,sitting,6514,tangram,far,E1.jpg,C2.jpg,survey-text,54,755042,17,7,sit
78,testing,dark,5672.495,familiar,close,grizzlybear.jpg,polarbear.jpg,survey-text,2,61495,19,4,dark
79,testing,gold,2967.88,familiar,close,goldfish.jpg,swordfish.jpg,survey-text,3,64966,19,4,gold
80,testing,hard,9930.8,familiar,close,mnms.jpg,gummybears.jpg,survey-text,4,75414,19,4,hard
81,testing,plain,4735.155,familiar,close,poloshirt.jpg,hawaiishirt.jpg,survey-text,5,80662,19,5,plain
82,testing,inside,4418.36,familiar,close,diningtable.jpg,picnictable.jpg,survey-text,6,85598,19,6,inside
83,testing,small,2745.255,familiar,close,sparrow.jpg,eagle.jpg,survey-text,7,88854,19,5,small
84,testing,commuter,4656.295,familiar,close,sedan.jpg,sportscar.jpg,survey-text,8,94014,19,8,commuter
85,testing,big,2888.92,familiar,close,germanshepherd.jpg,pug.jpg,survey-text,9,97414,19,3,big
86,testing,abstract,6609.94,tangram,close,F1.jpg,W1.jpg,survey-text,11,107966,19,8,abstract
87,testing,man,3810.215,tangram,close,H1.jpg,Y1.jpg,survey-text,12,112295,19,3,man
88,testing,giving,4700.91,tangram,close,I1.jpg,J1.jpg,survey-text,13,117510,19,6,give
89,testing,thin,6289.735,tangram,close,A1.jpg,A2.jpg,survey-text,14,124310,19,4,thin
90,testing,leaning,3260.425,tangram,close,B1.jpg,P1.jpg,survey-text,15,128078,19,7,lean
93,testing,jumping,7338.215,tangram,close,E1.jpg,F1.jpg,survey-text,16,135918,19,7,jump
95,testing,slim,3252.465,tangram,close,G1.jpg,M1.jpg,survey-text,17,139679,19,4,slim
97,testing,leaning,3751.005,tangram,close,K1.jpg,T1.jpg,survey-text,18,143934,19,7,lean
99,testing,jump,2939.945,tangram,far,E1.jpg,C2.jpg,survey-text,20,150094,19,4,jump
100,testing,stand,2815.745,tangram,far,G1.jpg,N1.jpg,survey-text,21,153422,19,5,stand
101,testing,straight,6052.005,tangram,far,H1.jpg,A2.jpg,survey-text,22,159983,19,8,straight
102,testing,running,6334.645,tangram,far,A1.jpg,D1.jpg,survey-text,23,166830,19,7,run
103,testing,leaning,2382.555,tangram,far,K1.jpg,V1.jpg,survey-text,24,169719,19,7,lean
104,testing,running,4079.165,tangram,far,F1.jpg,C1.jpg,survey-text,25,174310,19,7,run
105,testing,walking,3785.145,tangram,far,B1.jpg,O1.jpg,survey-text,26,178598,19,7,walk
106,testing,giving,2426.93,tangram,far,I1.jpg,R1.jpg,survey-text,27,181534,19,6,give
107,testing,table,5360.535,familiar,isolated,diningtable.jpg,picnictable.jpg,survey-text,29,190334,19,5,table
109,testing,car,4973.075,familiar,isolated,sedan.jpg,sportscar.jpg,survey-text,30,195815,19,3,car
110,testing,dog,1807.925,familiar,isolated,germanshepherd.jpg,pug.jpg,survey-text,31,198135,19,3,dog
111,testing,bird,2424.48,familiar,isolated,sparrow.jpg,eagle.jpg,survey-text,32,201063,19,4,bird
113,testing,bear,1832.435,familiar,isolated,grizzlybear.jpg,polarbear.jpg,survey-text,33,203407,19,4,bear
115,testing,goldfish,3275.72,familiar,isolated,goldfish.jpg,swordfish.jpg,survey-text,34,207199,19,8,goldfish
116,testing,candy,2569.99,familiar,isolated,mnms.jpg,gummybears.jpg,survey-text,35,210271,19,5,candy
117,testing,shirt,1620.835,familiar,isolated,poloshirt.jpg,hawaiishirt.jpg,survey-text,36,212400,19,5,shirt
118,testing,gold,4901.195,familiar,far,goldfish.jpg,iguana.jpg,survey-text,38,221399,19,4,gold
119,testing,bear,2013.22,familiar,far,grizzlybear.jpg,lion.jpg,survey-text,39,223926,19,4,bear
120,testing,candy,3271.975,familiar,far,mnms.jpg,pretzels.jpg,survey-text,40,227711,19,5,candy
121,testing,shirt,2158.695,familiar,far,poloshirt.jpg,dress.jpg,survey-text,41,230375,19,5,shirt
122,testing,car,2668.56,familiar,far,sedan.jpg,firetruck.jpg,survey-text,42,233550,19,3,car
123,testing,bird,1684.68,familiar,far,sparrow.jpg,squirrel.jpg,survey-text,43,235743,19,4,bird
124,testing,dog,1602.82,familiar,far,germanshepherd.jpg,cow.jpg,survey-text,44,237862,19,3,dog
125,testing,table,1758.165,familiar,far,diningtable.jpg,wardrobe.jpg,survey-text,45,240134,19,5,table
126,testing,jumping,6797.565,tangram,isolated,E1.jpg,F1.jpg,survey-text,47,249935,19,7,jump
128,testing,running,6289.365,tangram,isolated,F1.jpg,W1.jpg,survey-text,48,256734,19,7,run
129,testing,walking,3268.62,tangram,isolated,B1.jpg,P1.jpg,survey-text,49,260518,19,7,walk
130,testing,sitting,3273.15,tangram,isolated,G1.jpg,M1.jpg,survey-text,50,264310,19,7,sit
132,testing,giving,2694.35,tangram,isolated,I1.jpg,J1.jpg,survey-text,51,267511,19,6,give
133,testing,running,2629.355,tangram,isolated,A1.jpg,A2.jpg,survey-text,52,270655,19,7,run
135,testing,leaning,2285.48,tangram,isolated,K1.jpg,T1.jpg,survey-text,53,273447,19,7,lean
136,testing,standing,2365.675,tangram,isolated,H1.jpg,Y1.jpg,survey-text,54,276327,19,8,stand
578,testing,color,17830.205,familiar,far,poloshirt.jpg,dress.jpg,survey-text,2,39323,21,5,color
581,testing,bird,12298.405,familiar,far,sparrow.jpg,squirrel.jpg,survey-text,3,52131,21,4,bird
583,testing,table,15254.685,familiar,far,diningtable.jpg,wardrobe.jpg,survey-text,4,67904,21,5,table
586,testing,gems,8543.385,familiar,far,mnms.jpg,pretzels.jpg,survey-text,5,76970,21,4,gem
588,testing,bear,9147.935,familiar,far,grizzlybear.jpg,lion.jpg,survey-text,6,86630,21,4,bear
591,testing,fish,14872.685,familiar,far,goldfish.jpg,iguana.jpg,survey-text,7,102039,21,4,fish
594,testing,dog,8680.845,familiar,far,germanshepherd.jpg,cow.jpg,survey-text,8,111240,21,3,dog
597,testing,car,5352.355,familiar,far,sedan.jpg,firetruck.jpg,survey-text,9,117105,21,3,car
600,testing,color,10976.005,familiar,close,sedan.jpg,sportscar.jpg,survey-text,11,133122,21,5,color
605,testing,small,16320.91,familiar,close,sparrow.jpg,eagle.jpg,survey-text,12,149985,21,5,small
609,testing,plain,10878.255,familiar,close,poloshirt.jpg,hawaiishirt.jpg,survey-text,13,161372,21,5,plain
611,testing,golden,8550.785,familiar,close,goldfish.jpg,swordfish.jpg,survey-text,14,170446,21,6,golden
612,testing,dark,12110.39,familiar,close,grizzlybear.jpg,polarbear.jpg,survey-text,15,183083,21,4,dark
613,testing,dinning,9880.005,familiar,close,diningtable.jpg,picnictable.jpg,survey-text,16,193480,21,7,dine
614,testing,gems,6335.63,familiar,close,mnms.jpg,gummybears.jpg,survey-text,17,200323,21,4,gem
615,testing,long,8760.045,familiar,close,germanshepherd.jpg,pug.jpg,survey-text,18,209602,21,4,long
616,testing,bear,6038.68,familiar,isolated,grizzlybear.jpg,polarbear.jpg,survey-text,20,218866,21,4,bear
617,testing,sparrow,9480.155,familiar,isolated,sparrow.jpg,eagle.jpg,survey-text,21,228862,21,7,sparrow
618,testing,fish,6185.975,familiar,isolated,goldfish.jpg,swordfish.jpg,survey-text,22,235554,21,4,fish
619,testing,shirt,6464.925,familiar,isolated,poloshirt.jpg,hawaiishirt.jpg,survey-text,23,242525,21,5,shirt
620,testing,gems,10257.68,familiar,isolated,mnms.jpg,gummybears.jpg,survey-text,24,253299,21,4,gem
621,testing,blue,8244.51,familiar,isolated,sedan.jpg,sportscar.jpg,survey-text,25,262055,21,4,blue
622,testing,dog,5541.735,familiar,isolated,germanshepherd.jpg,pug.jpg,survey-text,26,268115,21,3,dog
623,testing,table,6860.8,familiar,isolated,diningtable.jpg,picnictable.jpg,survey-text,27,275484,21,5,table
624,testing,begging,16280.03,tangram,close,I1.jpg,J1.jpg,survey-text,29,366776,21,7,beg
625,testing,serve,9945.31,tangram,close,K1.jpg,T1.jpg,survey-text,30,377230,21,5,serve
626,testing,jump,7873.2,tangram,close,E1.jpg,F1.jpg,survey-text,31,385614,21,4,jump
627,testing,leap,9984.495,tangram,close,F1.jpg,W1.jpg,survey-text,32,396113,21,4,leap
628,testing,knee,9714.115,tangram,close,H1.jpg,Y1.jpg,survey-text,33,406347,21,4,knee
630,testing,down,9561.745,tangram,close,G1.jpg,M1.jpg,survey-text,34,416416,21,4,down
632,testing,running,9759.54,tangram,close,A1.jpg,A2.jpg,survey-text,35,426691,21,7,run
634,testing,sad,7486.16,tangram,close,B1.jpg,P1.jpg,survey-text,36,434686,21,3,sad
636,testing,sad,4939.75,tangram,isolated,B1.jpg,P1.jpg,survey-text,38,442530,21,3,sad
638,testing,up,9376.945,tangram,isolated,F1.jpg,W1.jpg,survey-text,39,452427,21,2,up
639,testing,beg,6491.86,tangram,isolated,H1.jpg,Y1.jpg,survey-text,40,459427,21,3,beg
642,testing,running,12183.74,tangram,isolated,A1.jpg,A2.jpg,survey-text,41,472132,21,7,run
644,testing,jump,5987.135,tangram,isolated,E1.jpg,F1.jpg,survey-text,42,478625,21,4,jump
645,testing,sit,6136.305,tangram,isolated,G1.jpg,M1.jpg,survey-text,43,485270,21,3,sit
647,testing,beg,6768.16,tangram,isolated,I1.jpg,J1.jpg,survey-text,44,492558,21,3,beg
649,testing,lean,6141.605,tangram,isolated,K1.jpg,T1.jpg,survey-text,45,499221,21,4,lean
652,testing,sad,10095.115,tangram,far,B1.jpg,O1.jpg,survey-text,47,512048,21,3,sad
654,testing,lean,6724.355,tangram,far,K1.jpg,V1.jpg,survey-text,48,519316,21,4,lean
656,testing,beg,6562.265,tangram,far,H1.jpg,A2.jpg,survey-text,49,526393,21,3,beg
659,testing,donate,13276.47,tangram,far,I1.jpg,R1.jpg,survey-text,50,540180,21,6,donate
662,testing,relax,9211.54,tangram,far,G1.jpg,N1.jpg,survey-text,51,549900,21,5,relax
666,testing,leap,12252.74,tangram,far,F1.jpg,C1.jpg,survey-text,52,562670,21,4,leap
669,testing,run,6770.035,tangram,far,A1.jpg,D1.jpg,survey-text,53,569953,21,3,run
671,testing,jump,5517.36,tangram,far,E1.jpg,C2.jpg,survey-text,54,575986,21,4,jump
835,testing,human,15550,tangram,isolated,I1.jpg,J1.jpg,survey-text,2,21885,22,5,human
836,testing,fish,10405,tangram,isolated,F1.jpg,W1.jpg,survey-text,3,32797,22,4,fish
837,testing,girl,7073,tangram,isolated,A1.jpg,A2.jpg,survey-text,4,40382,22,4,girl
838,testing,granny,10669,tangram,isolated,B1.jpg,P1.jpg,survey-text,5,51557,22,6,granny
839,testing,house,11034,tangram,isolated,H1.jpg,Y1.jpg,survey-text,6,63095,22,5,house
840,testing,house,10715,tangram,isolated,G1.jpg,M1.jpg,survey-text,8,105377,22,5,house
841,testing,girl,7161,tangram,isolated,K1.jpg,T1.jpg,survey-text,9,113043,22,4,girl
842,testing,house,4665,tangram,close,G1.jpg,M1.jpg,survey-text,11,120422,22,5,house
843,testing,puppy,13200,tangram,close,K1.jpg,T1.jpg,survey-text,13,227957,22,5,puppy
844,testing,girl,5267,tangram,close,A1.jpg,A2.jpg,survey-text,14,233731,22,4,girl
845,testing,house,4262,tangram,close,H1.jpg,Y1.jpg,survey-text,15,238502,22,5,house
846,testing,bat,8871,tangram,close,E1.jpg,F1.jpg,survey-text,16,247878,22,3,bat
847,testing,granny,8391,tangram,close,B1.jpg,P1.jpg,survey-text,17,256772,22,6,granny
848,testing,fish,7209,tangram,close,F1.jpg,W1.jpg,survey-text,18,264485,22,4,fish
849,testing,chocolates,12170,familiar,far,mnms.jpg,pretzels.jpg,survey-text,20,278787,22,10,chocolate
850,testing,car,4921,familiar,far,sedan.jpg,firetruck.jpg,survey-text,21,284218,22,3,car
851,testing,grizzly,8747,familiar,far,grizzlybear.jpg,lion.jpg,survey-text,22,293466,22,7,grizzly
852,testing,bird,13023,familiar,far,sparrow.jpg,squirrel.jpg,survey-text,23,306995,22,4,bird
853,testing,dog,4881,familiar,far,germanshepherd.jpg,cow.jpg,survey-text,24,312381,22,3,dog
854,testing,table,6637,familiar,far,diningtable.jpg,wardrobe.jpg,survey-text,25,319522,22,5,table
855,testing,shirt,5851,familiar,far,poloshirt.jpg,dress.jpg,survey-text,26,325883,22,5,shirt
856,testing,fish,5378,familiar,far,goldfish.jpg,iguana.jpg,survey-text,27,331765,22,4,fish
857,testing,chocolates,8254,familiar,close,mnms.jpg,gummybears.jpg,survey-text,29,342213,22,10,chocolate
858,testing,goldfish,7266,familiar,close,goldfish.jpg,swordfish.jpg,survey-text,30,349999,22,8,goldfish
859,testing,t-shirt,13216,familiar,close,poloshirt.jpg,hawaiishirt.jpg,survey-text,31,363728,22,7,tshirt
860,testing,car,5815,familiar,close,sedan.jpg,sportscar.jpg,survey-text,32,370046,22,3,car
861,testing,sparrow,6781,familiar,close,sparrow.jpg,eagle.jpg,survey-text,33,377342,22,7,sparrow
862,testing,dauber-man,19052,familiar,close,germanshepherd.jpg,pug.jpg,survey-text,34,396902,22,10,dobermann
863,testing,grizzly,9622,familiar,close,grizzlybear.jpg,polarbear.jpg,survey-text,35,407030,22,7,grizzly
864,testing,table,9311,familiar,close,diningtable.jpg,picnictable.jpg,survey-text,36,416850,22,5,table
865,testing,bat,7895,tangram,far,E1.jpg,C2.jpg,survey-text,38,427021,22,3,bat
866,testing,lady,15630,tangram,far,F1.jpg,C1.jpg,survey-text,39,443157,22,4,lady
867,testing,house,4545,tangram,far,G1.jpg,N1.jpg,survey-text,40,448207,22,5,house
868,testing,puppy,9819,tangram,far,K1.jpg,V1.jpg,survey-text,41,458532,22,5,puppy
869,testing,granny,4961,tangram,far,B1.jpg,O1.jpg,survey-text,42,464006,22,6,granny
870,testing,house,5221,tangram,far,H1.jpg,A2.jpg,survey-text,45,520693,22,5,house
871,testing,fish,6281,familiar,isolated,goldfish.jpg,swordfish.jpg,survey-text,47,529189,22,4,fish
872,testing,chocolates,4732,familiar,isolated,mnms.jpg,gummybears.jpg,survey-text,48,534425,22,10,chocolate
873,testing,dog,5280,familiar,isolated,germanshepherd.jpg,pug.jpg,survey-text,49,540208,22,3,dog
874,testing,car,4283,familiar,isolated,sedan.jpg,sportscar.jpg,survey-text,50,544994,22,3,car
875,testing,grizzly,5923,familiar,isolated,grizzlybear.jpg,polarbear.jpg,survey-text,51,551423,22,7,grizzly
876,testing,sparrow,5397,familiar,isolated,sparrow.jpg,eagle.jpg,survey-text,52,557325,22,7,sparrow
877,testing,shirt,3972,familiar,isolated,poloshirt.jpg,hawaiishirt.jpg,survey-text,53,561805,22,5,shirt
878,testing,table,4639,familiar,isolated,diningtable.jpg,picnictable.jpg,survey-text,54,566952,22,5,table
555,testing,thin,19450.325,tangram,close,H1.jpg,Y1.jpg,survey-text,2,52410,23,4,thin
556,testing,big,15673.865,tangram,close,F1.jpg,W1.jpg,survey-text,4,100312,23,3,big
557,testing,jump,5631.665,tangram,close,E1.jpg,F1.jpg,survey-text,5,106448,23,4,jump
558,testing,sad,7552.875,tangram,close,B1.jpg,P1.jpg,survey-text,6,114505,23,3,sad
559,testing,bent,7769.795,tangram,close,I1.jpg,J1.jpg,survey-text,8,143620,23,4,bend
560,testing,kneel,5434.045,tangram,close,G1.jpg,M1.jpg,survey-text,9,149557,23,5,kneel
561,testing,dog,6521.22,familiar,far,germanshepherd.jpg,cow.jpg,survey-text,11,159366,23,3,dog
562,testing,chocolate,6674.53,familiar,far,mnms.jpg,pretzels.jpg,survey-text,12,166543,23,9,chocolate
563,testing,fish,2631.23,familiar,far,goldfish.jpg,iguana.jpg,survey-text,13,169679,23,4,fish
564,testing,table,2441.33,familiar,far,diningtable.jpg,wardrobe.jpg,survey-text,14,172623,23,5,table
565,testing,car,1945.545,familiar,far,sedan.jpg,firetruck.jpg,survey-text,15,175072,23,3,car
566,testing,shirt,4281.785,familiar,far,poloshirt.jpg,dress.jpg,survey-text,16,179857,23,5,shirt
567,testing,bird,2215.3,familiar,far,sparrow.jpg,squirrel.jpg,survey-text,17,182577,23,4,bird
568,testing,bear,2616.505,familiar,far,grizzlybear.jpg,lion.jpg,survey-text,18,185697,23,4,bear
569,testing,bear,2754.145,familiar,isolated,grizzlybear.jpg,polarbear.jpg,survey-text,20,194394,23,4,bear
570,testing,fish,1904.515,familiar,isolated,goldfish.jpg,swordfish.jpg,survey-text,21,196803,23,4,fish
571,testing,dog,2977.525,familiar,isolated,germanshepherd.jpg,pug.jpg,survey-text,22,200283,23,3,dog
572,testing,bird,2299.5,familiar,isolated,sparrow.jpg,eagle.jpg,survey-text,23,203092,23,4,bird
573,testing,car,2529.655,familiar,isolated,sedan.jpg,sportscar.jpg,survey-text,24,206124,23,3,car
574,testing,shirt,1384.195,familiar,isolated,poloshirt.jpg,hawaiishirt.jpg,survey-text,25,208012,23,5,shirt
575,testing,candy,4504.905,familiar,isolated,mnms.jpg,gummybears.jpg,survey-text,26,213021,23,5,candy
576,testing,table,1585.015,familiar,isolated,diningtable.jpg,picnictable.jpg,survey-text,27,215109,23,5,table
577,testing,small,5983.765,familiar,close,sparrow.jpg,eagle.jpg,survey-text,29,223982,23,5,small
579,testing,chocolate,2817.115,familiar,close,mnms.jpg,gummybears.jpg,survey-text,30,227302,23,9,chocolate
580,testing,blue,2281.905,familiar,close,sedan.jpg,sportscar.jpg,survey-text,31,230087,23,4,blue
582,testing,big,2760.41,familiar,close,germanshepherd.jpg,pug.jpg,survey-text,33,254354,23,3,big
584,testing,brown,2502.415,familiar,close,grizzlybear.jpg,polarbear.jpg,survey-text,34,257362,23,5,brown
585,testing,gold,4376.66,familiar,close,goldfish.jpg,swordfish.jpg,survey-text,35,262243,23,4,gold
587,testing,plain,2976.98,familiar,close,poloshirt.jpg,hawaiishirt.jpg,survey-text,36,265723,23,5,plain
589,testing,walk,7874.34,tangram,isolated,B1.jpg,P1.jpg,survey-text,38,276301,23,4,walk
590,testing,bent,9881.975,tangram,isolated,K1.jpg,T1.jpg,survey-text,39,286686,23,4,bend
592,testing,run,2873.86,tangram,isolated,A1.jpg,A2.jpg,survey-text,40,290062,23,3,run
593,testing,jump,3033.895,tangram,isolated,E1.jpg,F1.jpg,survey-text,41,293599,23,4,jump
595,testing,bow,5497.1,tangram,isolated,I1.jpg,J1.jpg,survey-text,42,299599,23,3,bow
596,testing,kneel,2168.56,tangram,isolated,G1.jpg,M1.jpg,survey-text,43,302272,23,5,kneel
598,testing,run,3057.495,tangram,isolated,F1.jpg,W1.jpg,survey-text,44,305832,23,3,run
599,testing,hold,5850.21,tangram,isolated,H1.jpg,Y1.jpg,survey-text,45,312185,23,4,hold
601,testing,stand,5551.475,tangram,far,H1.jpg,A2.jpg,survey-text,47,320913,23,5,stand
602,testing,stationary,7042.29,tangram,far,I1.jpg,R1.jpg,survey-text,48,328458,23,10,stationary
603,testing,run,3360.085,tangram,far,F1.jpg,C1.jpg,survey-text,49,332323,23,3,run
604,testing,walk,2513.63,tangram,far,B1.jpg,O1.jpg,survey-text,50,335339,23,4,walk
606,testing,bend,3497.865,tangram,far,K1.jpg,V1.jpg,survey-text,51,339340,23,4,bend
607,testing,kneel,3225.455,tangram,far,G1.jpg,N1.jpg,survey-text,52,343068,23,5,kneel
608,testing,run,3108.615,tangram,far,A1.jpg,D1.jpg,survey-text,53,346685,23,3,run
610,testing,jump,2481.755,tangram,far,E1.jpg,C2.jpg,survey-text,54,349669,23,4,jump
1,testing,table,4867.21,familiar,isolated,diningtable.jpg,picnictable.jpg,survey-text,2,19330,24,5,table
2,testing,candy,3957.51,familiar,isolated,mnms.jpg,gummybears.jpg,survey-text,3,23805,24,5,candy
3,testing,bird,3667.135,familiar,isolated,sparrow.jpg,eagle.jpg,survey-text,4,27994,24,4,bird
4,testing,shirt,4731.38,familiar,isolated,poloshirt.jpg,hawaiishirt.jpg,survey-text,5,33241,24,5,shirt
5,testing,car,3854.325,familiar,isolated,sedan.jpg,sportscar.jpg,survey-text,6,37609,24,3,car
6,testing,bear,4646.65,familiar,isolated,grizzlybear.jpg,polarbear.jpg,survey-text,7,42768,24,4,bear
7,testing,goldfish,5905.005,familiar,isolated,goldfish.jpg,swordfish.jpg,survey-text,8,49188,24,8,goldfish
8,testing,dog,5718.73,familiar,isolated,germanshepherd.jpg,pug.jpg,survey-text,9,55422,24,3,dog
9,testing,fish,11536.64,familiar,close,goldfish.jpg,swordfish.jpg,survey-text,11,71831,24,4,fish
10,testing,solid,7104.775,familiar,close,poloshirt.jpg,hawaiishirt.jpg,survey-text,12,79448,24,5,solid
11,testing,shepherd,7542.915,familiar,close,germanshepherd.jpg,pug.jpg,survey-text,13,87503,24,8,shepherd
12,testing,grizzly,7273.8,familiar,close,grizzlybear.jpg,polarbear.jpg,survey-text,14,95302,24,7,grizzly
13,testing,interior,9399.54,familiar,close,diningtable.jpg,picnictable.jpg,survey-text,15,105215,24,8,interior
14,testing,practical,13994.715,familiar,close,sedan.jpg,sportscar.jpg,survey-text,16,119721,24,9,practical
15,testing,common,5537.74,familiar,close,sparrow.jpg,eagle.jpg,survey-text,17,125774,24,6,common
16,testing,classic,14001.765,familiar,close,mnms.jpg,gummybears.jpg,survey-text,18,140285,24,7,classic
17,testing,shirt,6816.915,familiar,far,poloshirt.jpg,dress.jpg,survey-text,20,150263,24,5,shirt
18,testing,bird,6108.765,familiar,far,sparrow.jpg,squirrel.jpg,survey-text,21,156886,24,4,bird
19,testing,candy,6537.95,familiar,far,mnms.jpg,pretzels.jpg,survey-text,22,163930,24,5,candy
20,testing,dog,5129.815,familiar,far,germanshepherd.jpg,cow.jpg,survey-text,23,169567,24,3,dog
21,testing,car,3712.62,familiar,far,sedan.jpg,firetruck.jpg,survey-text,24,173793,24,3,car
22,testing,table,4901.715,familiar,far,diningtable.jpg,wardrobe.jpg,survey-text,25,179205,24,5,table
23,testing,grizzly,5968.17,familiar,far,grizzlybear.jpg,lion.jpg,survey-text,26,185692,24,7,grizzly
24,testing,goldfish,9008.515,familiar,far,goldfish.jpg,iguana.jpg,survey-text,27,195211,24,8,goldfish
25,testing,person,8541.845,tangram,close,H1.jpg,Y1.jpg,survey-text,29,206776,24,6,person
26,testing,jump,5588.23,tangram,close,E1.jpg,F1.jpg,survey-text,30,212868,24,4,jump
27,testing,catch,8749.54,tangram,close,F1.jpg,W1.jpg,survey-text,31,222130,24,5,catch
28,testing,walk,6634.15,tangram,close,B1.jpg,P1.jpg,survey-text,32,229268,24,4,walk
29,testing,sit,7013.23,tangram,close,G1.jpg,M1.jpg,survey-text,33,236796,24,3,sit
30,testing,run,4289.525,tangram,close,A1.jpg,A2.jpg,survey-text,34,241603,24,3,run
31,testing,offer,5343.195,tangram,close,I1.jpg,J1.jpg,survey-text,35,247463,24,5,offer
32,testing,bow,8801.945,tangram,close,K1.jpg,T1.jpg,survey-text,36,256779,24,3,bow
33,testing,sit,5492.51,tangram,far,G1.jpg,N1.jpg,survey-text,38,264988,24,3,sit
34,testing,offer,3898.705,tangram,far,I1.jpg,R1.jpg,survey-text,39,269391,24,5,offer
35,testing,hold,8092.795,tangram,far,H1.jpg,A2.jpg,survey-text,40,277996,24,4,hold
36,testing,run,4907.595,tangram,far,A1.jpg,D1.jpg,survey-text,41,283412,24,3,run
37,testing,offer,4212.48,tangram,far,K1.jpg,V1.jpg,survey-text,42,288130,24,5,offer
38,testing,jump,5162.925,tangram,far,E1.jpg,C2.jpg,survey-text,43,293801,24,4,jump
39,testing,catch,5273.54,tangram,far,F1.jpg,C1.jpg,survey-text,44,299578,24,5,catch
40,testing,walk,4680.285,tangram,far,B1.jpg,O1.jpg,survey-text,45,304772,24,4,walk
41,testing,walk,6032.29,tangram,isolated,B1.jpg,P1.jpg,survey-text,47,313717,24,4,walk
42,testing,jump,4270.425,tangram,isolated,E1.jpg,F1.jpg,survey-text,48,318497,24,4,jump
43,testing,hold,3902.44,tangram,isolated,H1.jpg,Y1.jpg,survey-text,49,322910,24,4,hold
44,testing,run,4042.43,tangram,isolated,A1.jpg,A2.jpg,survey-text,50,327457,24,3,run
45,testing,offer,6848.9,tangram,isolated,I1.jpg,J1.jpg,survey-text,51,334822,24,5,offer
46,testing,offer,4550.285,tangram,isolated,K1.jpg,T1.jpg,survey-text,52,339882,24,5,offer
47,testing,catch,4700.56,tangram,isolated,F1.jpg,W1.jpg,survey-text,53,345097,24,5,catch
48,testing,sit,3699.915,tangram,isolated,G1.jpg,M1.jpg,survey-text,54,349311,24,3,sit
174,testing,eat,6751.455,familiar,far,mnms.jpg,pretzels.jpg,survey-text,2,1781921,25,3,eat
176,testing,animal,11511.795,familiar,far,goldfish.jpg,iguana.jpg,survey-text,3,1793946,25,6,animal
178,testing,dress,3837.165,familiar,far,poloshirt.jpg,dress.jpg,survey-text,4,1798292,25,5,dress
180,testing,animal,7823.695,familiar,far,germanshepherd.jpg,cow.jpg,survey-text,5,1806624,25,6,animal
182,testing,birds,5110.245,familiar,far,sparrow.jpg,squirrel.jpg,survey-text,6,1812243,25,5,bird
187,testing,trasporter,11013.42,familiar,far,sedan.jpg,firetruck.jpg,survey-text,7,1823781,25,10,trasporter
192,testing,tables,5600.875,familiar,far,diningtable.jpg,wardrobe.jpg,survey-text,8,1829889,25,6,table
195,testing,animal,5485.695,familiar,far,grizzlybear.jpg,lion.jpg,survey-text,9,1835887,25,6,animal
200,testing,art,8057.925,tangram,close,E1.jpg,F1.jpg,survey-text,11,1846358,25,3,art
202,testing,man,14355.265,tangram,close,K1.jpg,T1.jpg,survey-text,12,1861221,25,3,man
206,testing,walk,10941.265,tangram,close,A1.jpg,A2.jpg,survey-text,13,1872690,25,4,walk
209,testing,dance,8638.985,tangram,close,F1.jpg,W1.jpg,survey-text,14,1881854,25,5,dance
213,testing,standingman,8723.165,tangram,close,H1.jpg,Y1.jpg,survey-text,15,1891442,25,11,standingman
215,testing,sad,5112.445,tangram,close,B1.jpg,P1.jpg,survey-text,16,1897062,25,3,sad
219,testing,beggar,12242.86,tangram,close,I1.jpg,J1.jpg,survey-text,17,1909812,25,6,beggar
224,testing,sad,12243.515,tangram,close,G1.jpg,M1.jpg,survey-text,18,1922566,25,3,sad
228,testing,running,5897.05,tangram,far,G1.jpg,N1.jpg,survey-text,20,1932838,25,7,run
231,testing,happy,8277.1,tangram,far,E1.jpg,C2.jpg,survey-text,21,1941626,25,5,happy
234,testing,sad,3419.365,tangram,far,B1.jpg,O1.jpg,survey-text,22,1945559,25,3,sad
239,testing,walk,8538.605,tangram,far,A1.jpg,D1.jpg,survey-text,23,1954605,25,4,walk
245,testing,takeanyone,17910.57,tangram,far,H1.jpg,A2.jpg,survey-text,24,1973033,25,10,takeanyone
247,testing,run,5122.995,tangram,far,K1.jpg,V1.jpg,survey-text,25,1978667,25,3,run
249,testing,please,11427.625,tangram,far,F1.jpg,C1.jpg,survey-text,26,1991488,25,6,please
251,testing,run,5178.895,tangram,far,I1.jpg,R1.jpg,survey-text,27,1997176,25,3,run
253,testing,car,4080.605,familiar,isolated,sedan.jpg,sportscar.jpg,survey-text,29,2004063,25,3,car
255,testing,dog,3845.39,familiar,isolated,germanshepherd.jpg,pug.jpg,survey-text,30,2008415,25,3,dog
257,testing,table,3965.14,familiar,isolated,diningtable.jpg,picnictable.jpg,survey-text,31,2012889,25,5,table
259,testing,gems,5550.94,familiar,isolated,mnms.jpg,gummybears.jpg,survey-text,32,2018956,25,4,gem
261,testing,tshirt,7639.31,familiar,isolated,poloshirt.jpg,hawaiishirt.jpg,survey-text,33,2027108,25,6,tshirt
264,testing,animal,6672.7,familiar,isolated,grizzlybear.jpg,polarbear.jpg,survey-text,34,2034296,25,6,animal
266,testing,bird,3973.585,familiar,isolated,sparrow.jpg,eagle.jpg,survey-text,35,2038776,25,4,bird
268,testing,fish,3872.02,familiar,isolated,goldfish.jpg,swordfish.jpg,survey-text,36,2043160,25,4,fish
272,testing,animal,6717.155,familiar,close,grizzlybear.jpg,polarbear.jpg,survey-text,38,2052963,25,6,animal
273,testing,table,4380.1,familiar,close,diningtable.jpg,picnictable.jpg,survey-text,39,2057852,25,5,table
274,testing,dog,4749.455,familiar,close,germanshepherd.jpg,pug.jpg,survey-text,40,2063112,25,3,dog
276,testing,fish,4161.645,familiar,close,goldfish.jpg,swordfish.jpg,survey-text,41,2067796,25,4,fish
279,testing,gems,5309.81,familiar,close,mnms.jpg,gummybears.jpg,survey-text,42,2073614,25,4,gem
280,testing,bird,3870.255,familiar,close,sparrow.jpg,eagle.jpg,survey-text,43,2078002,25,4,bird
283,testing,tshirt,12662.8,familiar,close,poloshirt.jpg,hawaiishirt.jpg,survey-text,44,2091173,25,6,tshirt
285,testing,car,3363.63,familiar,close,sedan.jpg,sportscar.jpg,survey-text,45,2095060,25,3,car
286,testing,enjoy,8107.28,tangram,isolated,E1.jpg,F1.jpg,survey-text,47,2105560,25,5,enjoy
287,testing,sad,4265.34,tangram,isolated,G1.jpg,M1.jpg,survey-text,48,2110338,25,3,sad
289,testing,happy,5144.555,tangram,isolated,F1.jpg,W1.jpg,survey-text,49,2115989,25,5,happy
290,testing,sad,2927.76,tangram,isolated,B1.jpg,P1.jpg,survey-text,50,2119428,25,3,sad
291,testing,walk,4897.47,tangram,isolated,A1.jpg,A2.jpg,survey-text,51,2124833,25,4,walk
295,testing,takecare,13025.06,tangram,isolated,H1.jpg,Y1.jpg,survey-text,52,2138383,25,8,takecare
297,testing,please,7511.215,tangram,isolated,K1.jpg,T1.jpg,survey-text,53,2146612,25,6,please
299,testing,please,3880.85,tangram,isolated,I1.jpg,J1.jpg,survey-text,54,2151132,25,6,please
184,testing,man,8478.405,tangram,isolated,E1.jpg,F1.jpg,survey-text,2,16253,26,3,man
186,testing,bird,4332.515,tangram,isolated,F1.jpg,W1.jpg,survey-text,3,21106,26,4,bird
190,testing,dog,4784.035,tangram,isolated,K1.jpg,T1.jpg,survey-text,4,26399,26,3,dog
193,testing,woman,5045.91,tangram,isolated,I1.jpg,J1.jpg,survey-text,5,31956,26,5,woman
197,testing,sit,5829.815,tangram,isolated,G1.jpg,M1.jpg,survey-text,6,38297,26,3,sit
199,testing,walk,3856.95,tangram,isolated,B1.jpg,P1.jpg,survey-text,7,42665,26,4,walk
221,testing,run,4936.185,tangram,isolated,A1.jpg,A2.jpg,survey-text,9,112260,26,3,run
226,testing,stand,8701.83,tangram,close,H1.jpg,Y1.jpg,survey-text,11,128812,26,5,stand
233,testing,run,14268.905,tangram,close,F1.jpg,W1.jpg,survey-text,12,143598,26,3,run
237,testing,sit,4394.41,tangram,close,G1.jpg,M1.jpg,survey-text,13,148501,26,3,sit
240,testing,dog,8047.895,tangram,close,K1.jpg,T1.jpg,survey-text,14,158332,26,3,dog
243,testing,walk,4484.4,tangram,close,B1.jpg,P1.jpg,survey-text,15,163342,26,4,walk
244,testing,walk,6253.345,tangram,close,A1.jpg,A2.jpg,survey-text,16,170120,26,4,walk
246,testing,women,5817.89,tangram,close,I1.jpg,J1.jpg,survey-text,17,176464,26,5,woman
248,testing,fly,6084.73,tangram,close,E1.jpg,F1.jpg,survey-text,18,184224,26,3,fly
250,testing,dog,5994.675,familiar,far,germanshepherd.jpg,cow.jpg,survey-text,20,195407,26,3,dog
252,testing,table,4986.255,familiar,far,diningtable.jpg,wardrobe.jpg,survey-text,21,200919,26,5,table
254,testing,bird,3872.495,familiar,far,sparrow.jpg,squirrel.jpg,survey-text,22,205323,26,4,bird
256,testing,shirt,3877.175,familiar,far,poloshirt.jpg,dress.jpg,survey-text,23,209726,26,5,shirt
258,testing,car,3232.86,familiar,far,sedan.jpg,firetruck.jpg,survey-text,24,213480,26,3,car
262,testing,bear,11770.31,familiar,far,grizzlybear.jpg,lion.jpg,survey-text,25,225777,26,4,bear
263,testing,gems,5963.35,familiar,far,mnms.jpg,pretzels.jpg,survey-text,26,232251,26,4,gem
265,testing,fish,4409.98,familiar,far,goldfish.jpg,iguana.jpg,survey-text,27,237175,26,4,fish
269,testing,car,3463.69,familiar,close,sedan.jpg,sportscar.jpg,survey-text,29,243137,26,3,car
271,testing,dog,3773.69,familiar,close,germanshepherd.jpg,pug.jpg,survey-text,30,247434,26,3,dog
275,testing,bear,13881.01,familiar,close,grizzlybear.jpg,polarbear.jpg,survey-text,31,261943,26,4,bear
277,testing,fish,4638.98,familiar,close,goldfish.jpg,swordfish.jpg,survey-text,32,267101,26,4,fish
278,testing,gems,4364.32,familiar,close,mnms.jpg,gummybears.jpg,survey-text,33,271983,26,4,gem
281,testing,table,8424.025,familiar,close,diningtable.jpg,picnictable.jpg,survey-text,34,280918,26,5,table
282,testing,bird,4374.265,familiar,close,sparrow.jpg,eagle.jpg,survey-text,35,285812,26,4,bird
284,testing,blueshirt,5901.135,familiar,close,poloshirt.jpg,hawaiishirt.jpg,survey-text,36,292320,26,9,blueshirt
288,testing,table,15100.55,familiar,isolated,diningtable.jpg,picnictable.jpg,survey-text,38,309724,26,5,table
292,testing,fish,14461.62,familiar,isolated,goldfish.jpg,swordfish.jpg,survey-text,39,324695,26,4,fish
293,testing,car,5869.425,familiar,isolated,sedan.jpg,sportscar.jpg,survey-text,40,331076,26,3,car
294,testing,dog,4677.135,familiar,isolated,germanshepherd.jpg,pug.jpg,survey-text,41,336951,26,3,dog
296,testing,gems,3422.465,familiar,isolated,mnms.jpg,gummybears.jpg,survey-text,42,340886,26,4,gem
298,testing,bear,5365.415,familiar,isolated,grizzlybear.jpg,polarbear.jpg,survey-text,43,346777,26,4,bear
300,testing,bird,7217.39,familiar,isolated,sparrow.jpg,eagle.jpg,survey-text,44,354506,26,4,bird
301,testing,shirt,3470.225,familiar,isolated,poloshirt.jpg,hawaiishirt.jpg,survey-text,45,358486,26,5,shirt
304,testing,woman,5985.255,tangram,far,I1.jpg,R1.jpg,survey-text,47,367048,26,5,woman
307,testing,dog,4020.31,tangram,far,K1.jpg,V1.jpg,survey-text,48,371585,26,3,dog
309,testing,walk,3428.28,tangram,far,B1.jpg,O1.jpg,survey-text,49,375534,26,4,walk
310,testing,sit,3462.195,tangram,far,G1.jpg,N1.jpg,survey-text,50,379511,26,3,sit
311,testing,stand,4794.03,tangram,far,H1.jpg,A2.jpg,survey-text,51,385012,26,5,stand
312,testing,run,3767.62,tangram,far,A1.jpg,D1.jpg,survey-text,52,389308,26,3,run
313,testing,fly,4354.935,tangram,far,E1.jpg,C2.jpg,survey-text,53,394214,26,3,fly
315,testing,run,5034.12,tangram,far,F1.jpg,C1.jpg,survey-text,54,399763,26,3,run
201,testing,seal,3867.765,tangram,close,G1.jpg,M1.jpg,survey-text,2,1654401,27,4,seal
203,testing,priest,2969.145,tangram,close,H1.jpg,Y1.jpg,survey-text,3,1657874,27,6,priest
204,testing,runner,2509.79,tangram,close,A1.jpg,A2.jpg,survey-text,4,1660907,27,6,runner
205,testing,skyward,6487.15,tangram,close,F1.jpg,W1.jpg,survey-text,5,1667897,27,7,skyward
207,testing,jumping,2097.805,tangram,close,E1.jpg,F1.jpg,survey-text,6,1670501,27,7,jump
208,testing,sad,2197.535,tangram,close,B1.jpg,P1.jpg,survey-text,7,1673213,27,3,sad
210,testing,praying,4334.72,tangram,close,K1.jpg,T1.jpg,survey-text,8,1678053,27,7,pray
211,testing,offering,3085.035,tangram,close,I1.jpg,J1.jpg,survey-text,9,1681644,27,8,offer
212,testing,goldfish,2139.77,familiar,close,goldfish.jpg,swordfish.jpg,survey-text,11,1686972,27,8,goldfish
214,testing,bear,1759.925,familiar,close,grizzlybear.jpg,polarbear.jpg,survey-text,12,1689243,27,4,bear
216,testing,dog,3443.755,familiar,close,germanshepherd.jpg,pug.jpg,survey-text,13,1693193,27,3,dog
217,testing,candy,2518.415,familiar,close,mnms.jpg,gummybears.jpg,survey-text,14,1696220,27,5,candy
218,testing,solid,4955.8,familiar,close,poloshirt.jpg,hawaiishirt.jpg,survey-text,15,1701683,27,5,solid
220,testing,dining,5555.29,familiar,close,diningtable.jpg,picnictable.jpg,survey-text,16,1707747,27,6,dine
222,testing,honda,2516.625,familiar,close,sedan.jpg,sportscar.jpg,survey-text,17,1710771,27,5,honda
223,testing,sparrow,3709.36,familiar,close,sparrow.jpg,eagle.jpg,survey-text,18,1714989,27,7,sparrow
225,testing,balance,5830.265,tangram,far,A1.jpg,D1.jpg,survey-text,20,1724171,27,7,balance
227,testing,sad,2488.725,tangram,far,B1.jpg,O1.jpg,survey-text,21,1727162,27,3,sad
229,testing,offering,3480.265,tangram,far,I1.jpg,R1.jpg,survey-text,22,1731152,27,8,offer
230,testing,priest,3194.57,tangram,far,H1.jpg,A2.jpg,survey-text,23,1734863,27,6,priest
232,testing,praying,3035.915,tangram,far,K1.jpg,V1.jpg,survey-text,24,1738413,27,7,pray
235,testing,skyward,2779.62,tangram,far,F1.jpg,C1.jpg,survey-text,25,1741706,27,7,skyward
236,testing,jumping,2399.65,tangram,far,E1.jpg,C2.jpg,survey-text,26,1744616,27,7,jump
238,testing,kneeling,3410.76,tangram,far,G1.jpg,N1.jpg,survey-text,27,1748541,27,8,kneel
241,testing,praying,4530.98,tangram,isolated,K1.jpg,T1.jpg,survey-text,29,1755940,27,7,pray
242,testing,priest,2012.315,tangram,isolated,H1.jpg,Y1.jpg,survey-text,30,1758470,27,6,priest
260,testing,balance,3862.46,tangram,isolated,A1.jpg,A2.jpg,survey-text,32,1822578,27,7,balance
267,testing,offering,15542.67,tangram,isolated,I1.jpg,J1.jpg,survey-text,33,1838635,27,8,offer
270,testing,depressed,3155.67,tangram,isolated,B1.jpg,P1.jpg,survey-text,34,1842305,27,9,depress
302,testing,praying,2716.32,tangram,isolated,G1.jpg,M1.jpg,survey-text,36,1959098,27,7,pray
303,testing,sparrow,2033.685,familiar,isolated,sparrow.jpg,eagle.jpg,survey-text,38,1963316,27,7,sparrow
305,testing,car,2535.335,familiar,isolated,sedan.jpg,sportscar.jpg,survey-text,39,1966358,27,3,car
306,testing,bear,1570.98,familiar,isolated,grizzlybear.jpg,polarbear.jpg,survey-text,40,1968436,27,4,bear
308,testing,shirt,2037.59,familiar,isolated,poloshirt.jpg,hawaiishirt.jpg,survey-text,41,1970982,27,5,shirt
314,testing,table,2017.45,familiar,isolated,diningtable.jpg,picnictable.jpg,survey-text,43,1994421,27,5,table
316,testing,candy,2229.555,familiar,isolated,mnms.jpg,gummybears.jpg,survey-text,44,1997168,27,5,candy
317,testing,goldfish,2020.355,familiar,isolated,goldfish.jpg,swordfish.jpg,survey-text,45,1999703,27,8,goldfish
318,testing,table,2031.02,familiar,far,diningtable.jpg,wardrobe.jpg,survey-text,47,2003562,27,5,table
319,testing,bear,1410.86,familiar,far,grizzlybear.jpg,lion.jpg,survey-text,48,2005483,27,4,bear
320,testing,shirt,1819.72,familiar,far,poloshirt.jpg,dress.jpg,survey-text,49,2007807,27,5,shirt
321,testing,car,1392.44,familiar,far,sedan.jpg,firetruck.jpg,survey-text,50,2009711,27,3,car
322,testing,candy,1613.14,familiar,far,mnms.jpg,pretzels.jpg,survey-text,51,2011831,27,5,candy
323,testing,dog,2529.155,familiar,far,germanshepherd.jpg,cow.jpg,survey-text,52,2014876,27,3,dog
324,testing,fish,1448.235,familiar,far,goldfish.jpg,iguana.jpg,survey-text,53,2016829,27,4,fish
325,testing,bird,1939.255,familiar,far,sparrow.jpg,squirrel.jpg,survey-text,54,2019283,27,4,bird
787,testing,shirt,6511.055,familiar,far,poloshirt.jpg,dress.jpg,survey-text,2,40383,29,5,shirt
788,testing,bird,5011.395,familiar,far,sparrow.jpg,squirrel.jpg,survey-text,3,45897,29,4,bird
789,testing,dog,2755.705,familiar,far,germanshepherd.jpg,cow.jpg,survey-text,4,49156,29,3,dog
790,testing,goldfish,3759.19,familiar,far,goldfish.jpg,iguana.jpg,survey-text,5,53417,29,8,goldfish
791,testing,bear,2695.475,familiar,far,grizzlybear.jpg,lion.jpg,survey-text,6,56615,29,4,bear
792,testing,table,3567.795,familiar,far,diningtable.jpg,wardrobe.jpg,survey-text,7,60685,29,5,table
793,testing,candy,2645.095,familiar,far,mnms.jpg,pretzels.jpg,survey-text,8,63833,29,5,candy
794,testing,car,2591.8,familiar,far,sedan.jpg,firetruck.jpg,survey-text,9,66928,29,3,car
795,testing,sitting,5109.355,tangram,far,G1.jpg,N1.jpg,survey-text,11,76175,29,7,sit
796,testing,running,5571.95,tangram,far,A1.jpg,D1.jpg,survey-text,12,82249,29,7,run
797,testing,jumping,3392.43,tangram,far,E1.jpg,C2.jpg,survey-text,13,86145,29,7,jump
798,testing,running,5035.27,tangram,far,F1.jpg,C1.jpg,survey-text,14,91682,29,7,run
799,testing,serving,3220.835,tangram,far,I1.jpg,R1.jpg,survey-text,15,95405,29,7,serve
800,testing,holding,3677.515,tangram,far,H1.jpg,A2.jpg,survey-text,16,99585,29,7,hold
801,testing,dejected,5153.085,tangram,far,B1.jpg,O1.jpg,survey-text,17,105240,29,8,deject
802,testing,pleading,3552.475,tangram,far,K1.jpg,V1.jpg,survey-text,18,109296,29,8,plead
803,testing,sparrow,5351.48,familiar,close,sparrow.jpg,eagle.jpg,survey-text,20,118425,29,7,sparrow
804,testing,goldfish,3937.035,familiar,close,goldfish.jpg,swordfish.jpg,survey-text,21,122865,29,8,goldfish
805,testing,sedan,6088.175,familiar,close,sedan.jpg,sportscar.jpg,survey-text,22,129455,29,5,sedan
806,testing,shirt,12541.685,familiar,close,poloshirt.jpg,hawaiishirt.jpg,survey-text,23,142500,29,5,shirt
807,testing,german,4977.02,familiar,close,germanshepherd.jpg,pug.jpg,survey-text,24,147979,29,6,german
808,testing,table,4569.36,familiar,close,diningtable.jpg,picnictable.jpg,survey-text,25,153051,29,5,table
809,testing,chocolate,5550.5,familiar,close,mnms.jpg,gummybears.jpg,survey-text,26,159105,29,9,chocolate
810,testing,grizzly,5591.245,familiar,close,grizzlybear.jpg,polarbear.jpg,survey-text,27,165199,29,7,grizzly
811,testing,table,2657.39,familiar,isolated,diningtable.jpg,picnictable.jpg,survey-text,29,169977,29,5,table
812,testing,sedan,2159.74,familiar,isolated,sedan.jpg,sportscar.jpg,survey-text,30,172639,29,5,sedan
813,testing,grizzly,2656.515,familiar,isolated,grizzlybear.jpg,polarbear.jpg,survey-text,31,175798,29,7,grizzly
814,testing,shirt,1995.795,familiar,isolated,poloshirt.jpg,hawaiishirt.jpg,survey-text,32,178297,29,5,shirt
815,testing,chocolate,3153.785,familiar,isolated,mnms.jpg,gummybears.jpg,survey-text,33,181953,29,9,chocolate
816,testing,goldfish,2894.095,familiar,isolated,goldfish.jpg,swordfish.jpg,survey-text,34,185350,29,8,goldfish
817,testing,german,1996.05,familiar,isolated,germanshepherd.jpg,pug.jpg,survey-text,35,187848,29,6,german
818,testing,sparrow,2250.27,familiar,isolated,sparrow.jpg,eagle.jpg,survey-text,36,190601,29,7,sparrow
819,testing,dejected,3681.77,tangram,close,B1.jpg,P1.jpg,survey-text,38,196485,29,8,deject
820,testing,pleading,4524.62,tangram,close,K1.jpg,T1.jpg,survey-text,39,201513,29,8,plead
821,testing,sitting,2764.845,tangram,close,G1.jpg,M1.jpg,survey-text,40,204780,29,7,sit
822,testing,jaunt,18153.545,tangram,close,A1.jpg,A2.jpg,survey-text,41,223436,29,5,jaunt
823,testing,serving,3535.64,tangram,close,I1.jpg,J1.jpg,survey-text,42,227474,29,7,serve
824,testing,holding,3357.375,tangram,close,H1.jpg,Y1.jpg,survey-text,43,231335,29,7,hold
825,testing,leaping,2969.43,tangram,close,E1.jpg,F1.jpg,survey-text,44,234807,29,7,leap
826,testing,fleeing,5385.88,tangram,close,F1.jpg,W1.jpg,survey-text,45,240696,29,7,flee
827,testing,dejected,3426.435,tangram,isolated,B1.jpg,P1.jpg,survey-text,47,246246,29,8,deject
828,testing,holding,2313.64,tangram,isolated,H1.jpg,Y1.jpg,survey-text,48,249062,29,7,hold
829,testing,sitting,2251.23,tangram,isolated,G1.jpg,M1.jpg,survey-text,49,251816,29,7,sit
830,testing,fleeing,5327.935,tangram,isolated,F1.jpg,W1.jpg,survey-text,50,257646,29,7,flee
831,testing,skipping,6508.475,tangram,isolated,A1.jpg,A2.jpg,survey-text,51,264657,29,8,skip
832,testing,pleading,4958.62,tangram,isolated,K1.jpg,T1.jpg,survey-text,52,270117,29,8,plead
833,testing,serving,2629.205,tangram,isolated,I1.jpg,J1.jpg,survey-text,53,273249,29,7,serve
834,testing,jumping,3129.94,tangram,isolated,E1.jpg,F1.jpg,survey-text,54,276881,29,7,jump
127,testing,graduate,16778.955,tangram,far,H1.jpg,A2.jpg,survey-text,2,73078,30,8,graduate
131,testing,service,10103.855,tangram,far,K1.jpg,V1.jpg,survey-text,3,83714,30,7,service
134,testing,seal,6102.11,tangram,far,G1.jpg,N1.jpg,survey-text,4,90333,30,4,seal
137,testing,skipping,17009,tangram,far,A1.jpg,D1.jpg,survey-text,5,107862,30,8,skip
138,testing,flying,6786.885,tangram,far,E1.jpg,C2.jpg,survey-text,7,171889,30,6,fly
139,testing,sad,5140.755,tangram,far,B1.jpg,O1.jpg,survey-text,8,177552,30,3,sad
140,testing,waiter,12403.255,tangram,far,I1.jpg,R1.jpg,survey-text,9,190481,30,6,waiter
141,testing,seal,6341.135,tangram,isolated,G1.jpg,M1.jpg,survey-text,11,202102,30,4,seal
142,testing,flying,6445.03,tangram,isolated,E1.jpg,F1.jpg,survey-text,12,209056,30,6,fly
143,testing,service,7470.9,tangram,isolated,H1.jpg,Y1.jpg,survey-text,13,217043,30,7,service
144,testing,skipping,6951.235,tangram,isolated,A1.jpg,A2.jpg,survey-text,14,224510,30,8,skip
145,testing,sad,4073.805,tangram,isolated,B1.jpg,P1.jpg,survey-text,15,229101,30,3,sad
146,testing,crouching,7450.025,tangram,isolated,F1.jpg,W1.jpg,survey-text,16,237059,30,9,crouch
147,testing,waiter,7528.165,tangram,isolated,I1.jpg,J1.jpg,survey-text,17,245120,30,6,waiter
148,testing,service,11421.155,tangram,isolated,K1.jpg,T1.jpg,survey-text,18,257058,30,7,service
149,testing,bird,7742.195,familiar,close,sparrow.jpg,eagle.jpg,survey-text,20,268269,30,4,bird
150,testing,dog,8525.18,familiar,close,germanshepherd.jpg,pug.jpg,survey-text,21,277320,30,3,dog
151,testing,candy,7208.79,familiar,close,mnms.jpg,gummybears.jpg,survey-text,22,285044,30,5,candy
152,testing,shirt,5129.285,familiar,close,poloshirt.jpg,hawaiishirt.jpg,survey-text,23,290690,30,5,shirt
153,testing,bear,6013.67,familiar,close,grizzlybear.jpg,polarbear.jpg,survey-text,24,297213,30,4,bear
154,testing,table,6615.89,familiar,close,diningtable.jpg,picnictable.jpg,survey-text,25,304346,30,5,table
155,testing,car,3135.135,familiar,close,sedan.jpg,sportscar.jpg,survey-text,26,308000,30,3,car
156,testing,goldfish,6230.455,familiar,close,goldfish.jpg,swordfish.jpg,survey-text,27,314750,30,8,goldfish
157,testing,car,5954.74,familiar,isolated,sedan.jpg,sportscar.jpg,survey-text,29,485007,30,3,car
158,testing,bear,4257.26,familiar,isolated,grizzlybear.jpg,polarbear.jpg,survey-text,30,489780,30,4,bear
159,testing,candy,6120.36,familiar,isolated,mnms.jpg,gummybears.jpg,survey-text,31,496435,30,5,candy
160,testing,dog,4149.28,familiar,isolated,germanshepherd.jpg,pug.jpg,survey-text,32,501101,30,3,dog
161,testing,shirt,4680.025,familiar,isolated,poloshirt.jpg,hawaiishirt.jpg,survey-text,33,506303,30,5,shirt
162,testing,bird,4732.85,familiar,isolated,sparrow.jpg,eagle.jpg,survey-text,34,511562,30,4,bird
163,testing,table,7561.12,familiar,isolated,diningtable.jpg,picnictable.jpg,survey-text,35,519641,30,5,table
164,testing,goldfish,5466.875,familiar,isolated,goldfish.jpg,swordfish.jpg,survey-text,36,525629,30,8,goldfish
165,testing,shirt,8793.91,familiar,far,poloshirt.jpg,dress.jpg,survey-text,38,537415,30,5,shirt
166,testing,bird,6525.72,familiar,far,sparrow.jpg,squirrel.jpg,survey-text,39,544468,30,4,bird
167,testing,car,4425.41,familiar,far,sedan.jpg,firetruck.jpg,survey-text,40,549418,30,3,car
168,testing,table,4962.165,familiar,far,diningtable.jpg,wardrobe.jpg,survey-text,41,554895,30,5,table
169,testing,goldfish,5594.555,familiar,far,goldfish.jpg,iguana.jpg,survey-text,42,560998,30,8,goldfish
170,testing,bear,4128.365,familiar,far,grizzlybear.jpg,lion.jpg,survey-text,43,565644,30,4,bear
171,testing,dog,4611.1,familiar,far,germanshepherd.jpg,cow.jpg,survey-text,44,570777,30,3,dog
172,testing,candy,7182.16,familiar,far,mnms.jpg,pretzels.jpg,survey-text,45,578485,30,5,candy
173,testing,flying,6248.98,tangram,close,E1.jpg,F1.jpg,survey-text,47,587076,30,6,fly
175,testing,service,12570.285,tangram,close,H1.jpg,Y1.jpg,survey-text,48,600155,30,7,service
177,testing,service,9080.125,tangram,close,K1.jpg,T1.jpg,survey-text,49,609760,30,7,service
179,testing,sad,3519.03,tangram,close,B1.jpg,P1.jpg,survey-text,50,613805,30,3,sad
181,testing,waiter,5464.38,tangram,close,I1.jpg,J1.jpg,survey-text,51,619802,30,6,waiter
183,testing,seal,4561.525,tangram,close,G1.jpg,M1.jpg,survey-text,52,624880,30,4,seal
185,testing,skipping,5967.905,tangram,close,A1.jpg,A2.jpg,survey-text,53,631361,30,8,skip
189,testing,crouching,7055.655,tangram,close,F1.jpg,W1.jpg,survey-text,54,638930,30,9,crouch
